Data from 4.0bar_Subt2__0__19-36-09-690.txt Node

Date: Thu Jan 06 19:36:09 CET 2022
User: fsatto
Spectrometer: OFX01956
Trigger mode: 0
Integration Time (sec): 1.000000E-3
Scans to average: 10
Nonlinearity correction enabled: false
Boxcar width: 0
Storing dark spectrum: false
XAxis mode: Wavelengths
Number of Pixels in Spectrum: 2136
>>>>>Begin Spectral Data<<<<<
158.236	2.7
158.705	-2
159.174	0.6
159.643	5.7
160.112	-11.9
160.582	3
161.051	0.6
161.52	10.1
161.988	-1.8
162.457	-3.9
162.926	-5.5
163.395	1.9
163.864	-7.9
164.332	1.2
164.801	-11.8
165.269	-2.6
165.738	-5.1
166.206	0.4
166.675	-1.7
167.143	-0.9
167.612	-12.5
168.08	-6.3
168.548	-4.1
169.016	-1.8
169.484	-6.3
169.952	-6.9
170.42	-0.5
170.888	-7.3
171.356	-8.8
171.824	-0.3
172.292	-12
172.759	-0.1
173.227	-4
173.695	-7.6
174.162	-7.4
174.63	-1.2
175.097	-0.7
175.565	-2.7
176.032	-0.6
176.499	-5.5
176.967	-7.3
177.434	-4.6
177.901	-2.3
178.368	-5.5
178.835	-1.4
179.302	-7.7
179.769	-8.6
180.236	-5.9
180.703	-1.5
181.17	-0.2
181.637	-3.4
182.103	-3.6
182.57	-1.9
183.036	-4.2
183.503	2.7
183.97	2.2
184.436	-0.1
184.902	-6.3
185.369	2.2
185.835	3.6
186.301	-0.9
186.767	-7
187.234	-5.9
187.7	-4.3
188.166	-3.8
188.632	-3.2
189.098	-2.7
189.563	-9.7
190.029	-5.4
190.495	-9.9
190.961	0.9
191.426	-1.7
191.892	2.8
192.358	6.4
192.823	-2.5
193.289	-6
193.754	0.9
194.219	-12.1
194.685	1.5
195.15	-3.5
195.615	-7.9
196.08	-3.7
196.545	-7.3
197.01	-9.3
197.475	-5.8
197.94	-14.7
198.405	-3.8
198.87	-2.2
199.335	-3.2
199.8	-3
200.264	736.2
200.729	777.5
201.193	794.7
201.658	793.2
202.122	846.7
202.587	886
203.051	881.7
203.516	926.2
203.98	968
204.444	1045.5
204.908	1089.8
205.372	1169.9
205.836	1223.7
206.3	1274.7
206.764	1349.6
207.228	1374.3
207.692	1417.3
208.156	1538.6
208.62	1733.9
209.083	1874.1
209.547	2044.6
210.011	2222.2
210.474	2436.8
210.938	2671.3
211.401	2908.8
211.864	3174.5
212.328	3501
212.791	3775
213.254	4031.5
213.717	4349
214.181	4659.8
214.644	5047
215.107	5316.3
215.57	5386.3
216.033	5768.4
216.495	6283.6
216.958	6624.4
217.421	6696.1
217.884	6890.8
218.346	7049.5
218.809	7207.8
219.272	7782
219.734	8500.9
220.196	8953.8
220.659	9702.9
221.121	9854.9
221.584	9344
222.046	8831.7
222.508	8727.1
222.97	9122.8
223.432	10080.5
223.894	10706.8
224.356	10596.1
224.818	10571.1
225.28	11020.8
225.742	11720.5
226.204	12555.6
226.665	12627.2
227.127	12244.9
227.589	11608.2
228.05	12255.2
228.512	12883.2
228.973	13024.9
229.435	12593.5
229.896	11833.9
230.357	11111.8
230.818	10652
231.28	10733.3
231.741	11055.3
232.202	10789.5
232.663	10211.5
233.124	9693.7
233.585	9630.9
234.046	9988.6
234.507	10498.4
234.967	10706.2
235.428	10795.9
235.889	11164.5
236.349	11907.4
236.81	12621.1
237.271	12867.6
237.731	13288.3
238.191	13667.7
238.652	13432.6
239.112	12997.2
239.572	13244.6
240.033	13426.8
240.493	12764.9
240.953	11694.1
241.413	10810.9
241.873	10608.4
242.333	10496.9
242.793	10657.2
243.253	11673.7
243.712	13068
244.172	13891.7
244.632	13726.8
245.092	13559.1
245.551	14405.1
246.011	17086.4
246.47	19239.3
246.93	19658.6
247.389	19734.9
247.848	20369
248.308	21678
248.767	23630.3
249.226	24320.8
249.685	23395.4
250.144	21874.2
250.603	21090.6
251.062	21277.1
251.521	22961.9
251.98	25564.1
252.439	27724.5
252.897	28098
253.356	27121.1
253.815	25315.5
254.273	24900.3
254.732	26165.8
255.19	28155.5
255.649	28853.5
256.107	26972.2
256.566	24979.9
257.024	23936.7
257.482	24456.9
257.94	26535
258.398	29924.2
258.856	30941.4
259.315	28628.1
259.772	27015.3
260.23	27779.3
260.688	28766.5
261.146	29583.4
261.604	30562.2
262.062	30711.9
262.519	28918.2
262.977	26950.8
263.434	27101.1
263.892	28414.8
264.349	28186.8
264.807	26709.8
265.264	25487.4
265.721	24700.7
266.179	24612.7
266.636	24038.6
267.093	22673.4
267.55	22428.2
268.007	23041.3
268.464	22610.9
268.921	22386.7
269.378	22998.2
269.835	23748.2
270.291	23928.8
270.748	23292.9
271.205	23118.1
271.661	23057.4
272.118	23026.7
272.574	22423.7
273.031	22011.1
273.487	21239.3
273.944	20532.6
274.4	19291.2
274.856	18795
275.312	18492.9
275.768	17623.7
276.225	17002.1
276.681	16831
277.137	16694.1
277.593	16600.9
278.048	16798.4
278.504	17125.9
278.96	17076
279.416	16916.3
279.871	17099.5
280.327	17102.7
280.783	17096.3
281.238	17091.9
281.694	17298.3
282.149	17368.3
282.604	16803.4
283.06	16218.7
283.515	16202.9
283.97	16043.2
284.425	16007.3
284.88	15868
285.335	15453.5
285.79	14902.3
286.245	14171.9
286.7	13754.5
287.155	13347.3
287.61	13251.7
288.064	12911.7
288.519	12578.8
288.974	12285.4
289.428	11868.4
289.883	11756.9
290.337	12080.8
290.792	12306.8
291.246	12664.8
291.7	12732.8
292.155	13273.5
292.609	13417.5
293.063	13176.9
293.517	13126.3
293.971	13737.4
294.425	13902.5
294.879	14141.1
295.333	14587.4
295.787	14213.5
296.241	13713
296.694	13496.3
297.148	13298.9
297.602	12708.2
298.055	12542.2
298.509	12371.8
298.962	11829.2
299.416	11035.9
299.869	10426
300.322	9719.6
300.775	9462.3
301.229	9057.8
301.682	8163.2
302.135	7460.1
302.588	6841
303.041	6416.7
303.494	6024.7
303.947	5613.8
304.4	5472.1
304.852	5413.6
305.305	5304.4
305.758	5248.8
306.21	5220
306.663	5221.4
307.115	5195.8
307.568	5288.2
308.02	5317.8
308.473	5172.5
308.925	4936.9
309.377	4738
309.829	4673.7
310.282	4557.4
310.734	4477.6
311.186	4451.5
311.638	4393.4
312.09	4304.9
312.542	4107.2
312.993	3997.1
313.445	3854.7
313.897	3712.9
314.349	3569.7
314.8	3472.7
315.252	3258
315.703	3134.3
316.155	2943.7
316.606	2808.6
317.058	2628.1
317.509	2455.7
317.96	2307.2
318.411	2202.3
318.863	2046.3
319.314	1933.8
319.765	1914.2
320.216	1871.6
320.667	1783.4
321.117	1687
321.568	1582.1
322.019	1507.7
322.47	1448.1
322.921	1365.2
323.371	1321.7
323.822	1252.6
324.272	1197.6
324.723	1167.8
325.173	1109.1
325.623	1053
326.074	992.1
326.524	933.3
326.974	849.5
327.424	803.5
327.874	757.7
328.325	716.6
328.775	818.3
329.224	1346.2
329.674	1293.4
330.124	866.4
330.574	763.7
331.024	677.1
331.473	631.1
331.923	587.9
332.373	547.8
332.822	471
333.272	422.8
333.721	403.7
334.17	377.7
334.62	350.3
335.069	299.5
335.518	278.2
335.967	264.7
336.416	242.9
336.865	233.7
337.314	199.5
337.763	194.7
338.212	191.6
338.661	161.8
339.11	148.1
339.558	133.2
340.007	144.6
340.456	117.3
340.904	120.3
341.353	105.3
341.801	115.7
342.25	99.6
342.698	100.3
343.146	95.2
343.595	91.7
344.043	81
344.491	76.5
344.939	72.5
345.387	77.9
345.835	64
346.283	68.9
346.731	62.8
347.179	57.3
347.626	57.7
348.074	53.5
348.522	45.9
348.969	45.9
349.417	53.6
349.865	40.3
350.312	40.1
350.759	42.4
351.207	30.9
351.654	38.5
352.101	26.5
352.548	32.5
352.996	24.2
353.443	16.8
353.89	24.6
354.337	28.9
354.784	23.4
355.231	20.8
355.677	10.2
356.124	13.9
356.571	13.7
357.018	22.5
357.464	15.1
357.911	5.1
358.357	8.7
358.804	16.4
359.25	14
359.696	11.2
360.143	-6.6
360.589	11.2
361.035	15.3
361.481	8.5
361.927	16.7
362.373	14.3
362.819	12.7
363.265	9.9
363.711	12.9
364.157	10.2
364.603	3.4
365.048	-0.1
365.494	10.4
365.94	6.9
366.385	3.2
366.831	1.9
367.276	6
367.722	6
368.167	12.8
368.612	4.1
369.057	12.3
369.503	8
369.948	5.2
370.393	2.2
370.838	9.8
371.283	10
371.728	2
372.173	6.7
372.617	-4.3
373.062	-10.5
373.507	11.2
373.951	7.9
374.396	10.4
374.841	4.8
375.285	4.4
375.729	9.4
376.174	7.9
376.618	9.3
377.062	10
377.507	7.7
377.951	14.1
378.395	10.5
378.839	15.8
379.283	12.5
379.727	7.3
380.171	5.9
380.615	2.3
381.059	1.1
381.502	3
381.946	18.1
382.39	14.2
382.833	6
383.277	2.6
383.72	4.2
384.164	12.8
384.607	1.4
385.05	11.4
385.494	3.5
385.937	1.5
386.38	8.5
386.823	10.9
387.266	-0.1
387.709	1.4
388.152	7.7
388.595	5.3
389.038	4.7
389.481	11.5
389.923	12.2
390.366	14.4
390.809	-6.3
391.251	1.7
391.694	-1.7
392.136	9.9
392.579	7.9
393.021	9.6
393.463	1.9
393.906	8.2
394.348	0.8
394.79	4.9
395.232	0.6
395.674	-4.8
396.116	9
396.558	1.6
397	5.1
397.442	7.8
397.884	4.9
398.325	3
398.767	-2.2
399.209	10.7
399.65	5.3
400.092	2.1
400.533	8.1
400.974	10.7
401.416	6.1
401.857	3.3
402.298	21.8
402.74	-1.3
403.181	5.6
403.622	0.8
404.063	1.3
404.504	12.1
404.945	6
405.386	2
405.826	-0.8
406.267	2.1
406.708	-7.5
407.149	1.4
407.589	4.2
408.03	2.6
408.47	2
408.911	4.7
409.351	2.3
409.791	1.6
410.232	5.3
410.672	5.3
411.112	6.1
411.552	8.9
411.992	7.9
412.432	8.5
412.872	5.2
413.312	14.1
413.752	6.6
414.192	8.4
414.632	2.4
415.071	14.1
415.511	1.7
415.951	-0.9
416.39	11.1
416.83	5.1
417.269	8.1
417.708	6.7
418.148	9.2
418.587	2.8
419.026	1.4
419.465	1.5
419.904	7.1
420.344	9.5
420.783	-0.2
421.221	1.9
421.66	6.8
422.099	-0.3
422.538	8.8
422.977	8
423.415	-3.9
423.854	-3
424.293	-1
424.731	3.3
425.17	4.8
425.608	-0.5
426.046	6
426.485	0.9
426.923	9.9
427.361	-0.5
427.799	-7.3
428.237	11.8
428.675	-4.7
429.113	1
429.551	-0.7
429.989	-2.2
430.427	0.1
430.865	-2.6
431.303	-6.8
431.74	7.7
432.178	5
432.615	-2.9
433.053	11.7
433.49	-5.8
433.928	7.4
434.365	3.7
434.802	3.9
435.24	0.4
435.677	11.2
436.114	-2.1
436.551	8.5
436.988	10.6
437.425	4.2
437.862	-0.4
438.299	4.5
438.736	8.1
439.172	-5.4
439.609	5.5
440.046	-7.9
440.482	-1.1
440.919	0.6
441.355	-0.1
441.792	-1.1
442.228	5.2
442.665	-8.3
443.101	2.2
443.537	-0.1
443.973	3.8
444.409	0
444.845	1.7
445.281	1.8
445.717	6.2
446.153	4.5
446.589	-8.9
447.025	-2.6
447.461	5.8
447.896	10.8
448.332	-2
448.768	-5.9
449.203	-5.4
449.639	0.1
450.074	-7.8
450.509	-7.9
450.945	-0.8
451.38	-4.1
451.815	9.6
452.25	2.7
452.685	4.2
453.12	-2
453.555	1
453.99	3.4
454.425	8.3
454.86	-1.4
455.295	-0.7
455.73	5.1
456.164	-9.7
456.599	-3.4
457.033	2.6
457.468	1
457.902	5.6
458.337	2.5
458.771	-10.8
459.205	4.2
459.64	5.7
460.074	0.8
460.508	7.6
460.942	2
461.376	-6.1
461.81	14.8
462.244	11.5
462.678	-7
463.112	3.9
463.545	9
463.979	11.8
464.413	1.1
464.846	5.6
465.28	1.8
465.713	8.9
466.147	11.7
466.58	-4.3
467.014	5.1
467.447	8.7
467.88	13.1
468.313	5.9
468.746	-2.1
469.179	8.2
469.612	0.7
470.045	4.5
470.478	2.8
470.911	7.8
471.344	5.6
471.777	0.4
472.209	9.9
472.642	-2.1
473.074	5.5
473.507	-1.8
473.939	7.9
474.372	4.8
474.804	5.9
475.236	4.6
475.669	13.3
476.101	11.5
476.533	9.8
476.965	6.4
477.397	7.7
477.829	4.5
478.261	8
478.693	6
479.125	1.7
479.557	0.8
479.988	-3.7
480.42	-8.5
480.852	2.9
481.283	2.8
481.715	2.8
482.146	1.1
482.577	4
483.009	9
483.44	-1
483.871	-13.5
484.302	1.7
484.734	10.7
485.165	2.4
485.596	7.5
486.027	4.9
486.457	4.7
486.888	5.2
487.319	6.5
487.75	0.9
488.181	2.5
488.611	14.5
489.042	1.3
489.472	4.5
489.903	2.9
490.333	3.4
490.764	9.6
491.194	3.6
491.624	2.5
492.054	5.7
492.484	1.1
492.915	7.1
493.345	-7
493.775	0.1
494.204	-4.2
494.634	1.7
495.064	-0.9
495.494	2.3
495.924	10.6
496.353	7.5
496.783	2.4
497.212	-0.5
497.642	-2.6
498.071	-10.9
498.501	2.2
498.93	11.1
499.359	-2.1
499.789	3.7
500.218	-2.7
500.647	4.8
501.076	1.7
501.505	-8.6
501.934	-2.2
502.363	1.7
502.792	0.8
503.221	-1.4
503.649	0.4
504.078	-0.9
504.507	-11.6
504.935	2.2
505.364	-2.1
505.792	2.3
506.221	-8
506.649	1.6
507.077	-6.5
507.506	7.4
507.934	3.4
508.362	6.8
508.79	-6.1
509.218	-3.3
509.646	1.2
510.074	-4.7
510.502	6.7
510.93	0.1
511.357	7.7
511.785	-7.6
512.213	-7.8
512.64	-1.3
513.068	2.4
513.496	-1.4
513.923	-4.3
514.35	-5
514.778	-3.8
515.205	-1.4
515.632	6.8
516.059	-0.1
516.486	2.7
516.914	-1.3
517.341	8.9
517.768	-3.1
518.194	0.5
518.621	6.5
519.048	-9.3
519.475	-10.4
519.902	-0.8
520.328	-2.6
520.755	2.2
521.181	4.3
521.608	6.4
522.034	1.3
522.461	-1.7
522.887	-13.4
523.313	-5.8
523.739	-5.1
524.165	-12.2
524.592	-3
525.018	-5.5
525.444	4.6
525.869	-8.1
526.295	-11.3
526.721	1.3
527.147	3.3
527.573	-0.1
527.998	-1
528.424	3.5
528.849	-0.9
529.275	1.5
529.7	-3.3
530.126	-3.6
530.551	-0.5
530.976	-5.2
531.402	-5.3
531.827	-0.3
532.252	-7.7
532.677	4.7
533.102	-6.5
533.527	5
533.952	8.5
534.377	-7.6
534.801	8.1
535.226	-5.2
535.651	2.1
536.076	-2.8
536.5	-5.9
536.925	5.6
537.349	6.8
537.773	12.3
538.198	-4.8
538.622	0.4
539.046	3.2
539.471	-1.7
539.895	9.6
540.319	-2.6
540.743	-1.8
541.167	2.6
541.591	-8.1
542.015	1
542.438	3.6
542.862	-0.4
543.286	0.8
543.71	-6.7
544.133	1.3
544.557	-6.5
544.98	-1.8
545.404	4.5
545.827	8.5
546.25	0.2
546.674	3.4
547.097	18.3
547.52	2.8
547.943	2.5
548.366	2.4
548.789	-4.5
549.212	5.9
549.635	5.7
550.058	-1.5
550.481	0
550.903	12.9
551.326	10.1
551.749	2
552.171	-1.6
552.594	0.1
553.016	-2.4
553.438	14.4
553.861	8.5
554.283	5.1
554.705	2
555.128	2.9
555.55	4.6
555.972	5.9
556.394	3.1
556.816	0.7
557.238	7.2
557.659	2.5
558.081	-0.3
558.503	4.3
558.925	7.8
559.346	5
559.768	-2.2
560.189	1.3
560.611	2.3
561.032	-1.2
561.454	8
561.875	0.3
562.296	2.3
562.718	5.1
563.139	-0.7
563.56	7.6
563.981	-7.2
564.402	-6.4
564.823	-6.4
565.244	-3.5
565.664	-3.8
566.085	-4.3
566.506	-5.6
566.927	-7.6
567.347	3.8
567.768	-0.3
568.188	0.8
568.609	0.7
569.029	-6.6
569.449	-6.5
569.87	0.2
570.29	0.3
570.71	-2.4
571.13	-1.7
571.55	-3.7
571.97	-6.2
572.39	3.5
572.81	-9.2
573.23	-4.3
573.65	-6.4
574.069	-6.4
574.489	-0.4
574.909	-11.6
575.328	2.8
575.748	-1.8
576.167	0.6
576.587	-0.9
577.006	2.6
577.425	2.6
577.844	6
578.264	4.2
578.683	-4.6
579.102	-4.7
579.521	-1.4
579.94	-0.2
580.359	2.1
580.778	-1.7
581.196	-7.2
581.615	-12.8
582.034	1
582.452	-13.4
582.871	-3.5
583.29	-3.6
583.708	-9.6
584.126	3.6
584.545	7.3
584.963	-2.4
585.381	1.4
585.8	1.3
586.218	-3.4
586.636	-4.2
587.054	-4.1
587.472	-8.6
587.89	-9.9
588.308	2.1
588.725	-2.6
589.143	-0.7
589.561	-8.5
589.979	-1.2
590.396	-5.3
590.814	3.5
591.231	-16.5
591.649	-7.9
592.066	-0.6
592.483	-6.5
592.901	1
593.318	-3.3
593.735	2.9
594.152	6.6
594.569	3.3
594.986	-1.8
595.403	2.4
595.82	4.7
596.237	4.8
596.654	-1
597.07	-1.3
597.487	-2.3
597.904	-6.7
598.32	-2.5
598.737	-1.6
599.153	0
599.57	6.3
599.986	-3.4
600.402	5.3
600.818	-0.8
601.235	-6.9
601.651	-9.1
602.067	1.4
602.483	-7.3
602.899	-3.9
603.315	-3.9
603.73	-0.2
604.146	-1.5
604.562	-3.9
604.978	-1
605.393	1.1
605.809	-5.4
606.224	-1.7
606.64	1.7
607.055	-6.2
607.471	3.7
607.886	2
608.301	-3.5
608.716	-0.5
609.131	-11.3
609.547	-2.5
609.962	-1.1
610.377	-2.5
610.791	-4.8
611.206	2.5
611.621	-9.4
612.036	1.8
612.451	-6.5
612.865	-3
613.28	-2.7
613.694	-6.5
614.109	-2.4
614.523	-0.3
614.938	2.5
615.352	2.2
615.766	-3.9
616.18	3.8
616.595	14.5
617.009	-8.4
617.423	1.1
617.837	3.5
618.251	-0.5
618.664	3.9
619.078	0.4
619.492	13.9
619.906	10.3
620.319	8.1
620.733	10.1
621.146	7.4
621.56	10.7
621.973	7.4
622.387	0.5
622.8	9
623.213	14.3
623.627	15.4
624.04	15
624.453	24.4
624.866	14.5
625.279	5.9
625.692	6.4
626.105	17.4
626.518	21.7
626.93	22.9
627.343	21.6
627.756	14.8
628.168	20.5
628.581	24
628.993	16.2
629.406	7.7
629.818	28.1
630.231	32.9
630.643	34.6
631.055	23.9
631.467	41.3
631.879	49.9
632.291	40.6
632.703	50.3
633.115	55.6
633.527	66.6
633.939	72.3
634.351	77.6
634.763	79.3
635.174	79.3
635.586	77.8
635.997	79.7
636.409	87.4
636.82	94.5
637.232	106.6
637.643	100.4
638.054	103.7
638.466	101.1
638.877	102.4
639.288	97.6
639.699	115.8
640.11	106.6
640.521	111.8
640.932	116.2
641.343	118.8
641.753	119.2
642.164	127.9
642.575	134.7
642.986	116
643.396	118.9
643.807	115.5
644.217	127.6
644.627	108.9
645.038	114
645.448	123
645.858	118.3
646.269	118.7
646.679	110.5
647.089	108.1
647.499	108.7
647.909	110.4
648.319	110.4
648.728	102
649.138	94.7
649.548	88.8
649.958	81.9
650.367	78.5
650.777	76
651.186	77.7
651.596	60.5
652.005	72.3
652.415	71.7
652.824	64.5
653.233	64
653.642	61.9
654.052	64.5
654.461	59.5
654.87	54.9
655.279	50.8
655.688	47.8
656.096	53.2
656.505	52.9
656.914	52.9
657.323	58.2
657.731	53
658.14	48.2
658.548	55.5
658.957	43.6
659.365	49.1
659.774	39.2
660.182	52.8
660.59	57.6
660.998	50
661.407	47
661.815	45.8
662.223	37.8
662.631	45.9
663.039	42.3
663.446	34.3
663.854	36.9
664.262	35.9
664.67	38.9
665.077	26.7
665.485	35.5
665.892	23.8
666.3	38
666.707	30.2
667.115	33.8
667.522	25.9
667.929	24.1
668.337	28.5
668.744	26.4
669.151	20.3
669.558	25.5
669.965	23.5
670.372	17.2
670.779	16.2
671.185	11.5
671.592	19.4
671.999	6.4
672.405	10.1
672.812	17.9
673.219	1.3
673.625	-9
674.032	-8.6
674.438	2.7
674.844	7.9
675.25	-6.9
675.657	4.7
676.063	-3.9
676.469	9.9
676.875	-11.9
677.281	0.7
677.687	-5.9
678.093	0.3
678.499	-4
678.904	-1.9
679.31	-0.4
679.716	-7.6
680.121	-9.3
680.527	-5.6
680.932	2.1
681.338	6.7
681.743	-2.4
682.148	2.6
682.554	4.7
682.959	0
683.364	-4.3
683.769	-7.6
684.174	-6.9
684.579	-12.3
684.984	-4
685.389	0.7
685.794	-5.4
686.199	-9.9
686.603	-5.6
687.008	-2.9
687.413	-10.6
687.817	-6.6
688.222	3.1
688.626	-21.3
689.03	-7.9
689.435	-5.5
689.839	-2.2
690.243	1
690.647	-3.4
691.051	-4.7
691.456	-8.2
691.859	-13.9
692.263	-12.8
692.667	-8
693.071	0.4
693.475	-0.7
693.879	0.8
694.282	-6.3
694.686	5.7
695.089	2.3
695.493	-3.8
695.896	-6.9
696.3	-10.5
696.703	-6
697.106	-10.7
697.509	-1.3
697.913	-12.5
698.316	-6.1
698.719	5.2
699.122	1.5
699.525	0.4
699.928	1.1
700.33	-0.5
700.733	-5.5
701.136	-8.9
701.539	-6.5
701.941	-1.8
702.344	-2.9
702.746	3
703.149	-7.4
703.551	-8.1
703.953	9
704.356	-4.8
704.758	0.6
705.16	-5.5
705.562	-1.8
705.964	-14.6
706.366	-1.4
706.768	-11.7
707.17	-6.4
707.572	-9.3
707.973	-1.2
708.375	-5.5
708.777	-14.1
709.178	-5.1
709.58	0.3
709.981	-4.6
710.383	-6.1
710.784	-3.3
711.186	-4.7
711.587	-3.5
711.988	-2
712.389	4.7
712.79	-4.6
713.191	1.8
713.592	-6
713.993	-10.3
714.394	-2.4
714.795	-1.3
715.196	-1.5
715.596	0.5
715.997	-2.9
716.398	0.3
716.798	-5
717.199	3.6
717.599	-3.3
718	-13.7
718.4	-4.2
718.8	1.8
719.2	-6.4
719.6	6.5
720.001	-1.2
720.401	-7.2
720.801	1.8
721.201	-4.7
721.6	-0.9
722	0.4
722.4	-7.5
722.8	-7
723.199	3
723.599	-9.6
723.998	-5
724.398	-11.7
724.797	-9.3
725.197	-8.1
725.596	3.2
725.995	-3.3
726.394	-3.2
726.794	-3.8
727.193	-7.2
727.592	-10.2
727.991	-7.8
728.39	-10.5
728.789	-7.7
729.187	-8.4
729.586	-0.2
729.985	1.2
730.383	-4.7
730.782	-4.7
731.181	-11.3
731.579	-0.4
731.977	-21.1
732.376	-7.7
732.774	-5
733.172	-5.1
733.571	2.6
733.969	-4.6
734.367	3.2
734.765	3.5
735.163	4.2
735.561	-4.8
735.959	-0.1
736.356	-13.2
736.754	-1.2
737.152	-0.6
737.55	3.9
737.947	0
738.345	5.9
738.742	4.9
739.14	10.9
739.537	6
739.934	6.8
740.331	8.9
740.729	7.2
741.126	3.6
741.523	5.5
741.92	6.3
742.317	2.2
742.714	16.7
743.111	3.5
743.507	5.1
743.904	4.3
744.301	14
744.697	8.1
745.094	-1.1
745.491	-0.4
745.887	9.5
746.283	7.1
746.68	10.8
747.076	-0.1
747.472	-0.5
747.869	9.7
748.265	-4
748.661	5.3
749.057	0.9
749.453	13
749.849	11.9
750.244	4.3
750.64	12.3
751.036	12.2
751.432	18.8
751.827	5.1
752.223	5.4
752.618	16.3
753.014	11.7
753.409	11.7
753.805	10.8
754.2	14.8
754.595	12.7
754.99	14.2
755.385	8.2
755.78	5.9
756.175	9.6
756.57	9.4
756.965	19.6
757.36	24.8
757.755	23.3
758.15	17.3
758.544	11.7
758.939	30.4
759.334	35.8
759.728	39.5
760.122	37.6
760.517	45
760.911	41.1
761.306	32.5
761.7	37.2
762.094	45.4
762.488	31.4
762.882	36.1
763.276	43.9
763.67	30.4
764.064	44.3
764.458	37.2
764.852	39.3
765.245	44.9
765.639	42.7
766.033	50.4
766.426	60.8
766.82	65.6
767.213	56.5
767.606	71.1
768	54.8
768.393	54.7
768.786	65
769.179	56
769.572	58.9
769.966	50.5
770.358	43.9
770.751	59.6
771.144	56
771.537	47
771.93	38.7
772.323	47
772.715	43.9
773.108	31.6
773.5	32
773.893	26.8
774.285	27.7
774.678	13.3
775.07	15.5
775.462	31
775.854	11.6
776.247	16.8
776.639	4.9
777.031	11.6
777.423	9.6
777.815	19.1
778.207	11.4
778.598	10.9
778.99	7.9
779.382	12.4
779.773	19.3
780.165	9.8
780.557	26
780.948	21.7
781.339	24.9
781.731	38.5
782.122	40.2
782.513	43
782.905	37.8
783.296	36.3
783.687	41.2
784.078	25.1
784.469	37.7
784.86	37.4
785.251	32.5
785.641	41.4
786.032	29.8
786.423	26.6
786.813	29.6
787.204	38.3
787.594	25.7
787.985	31.9
788.375	27.1
788.766	23.1
789.156	18.6
789.546	18.2
789.936	22.3
790.326	11.9
790.717	20.4
791.107	13.1
791.497	15.9
791.886	11
792.276	21.4
792.666	12.3
793.056	2.2
793.445	13.5
793.835	25.3
794.225	14
794.614	12
795.004	5.7
795.393	8.2
795.782	11.5
796.172	10.9
796.561	13.9
796.95	10.8
797.339	13.6
797.728	4.4
798.117	13.4
798.506	16.5
798.895	12
799.284	14.6
799.673	7.7
800.061	15.4
800.45	14.4
800.839	12.9
801.227	12.6
801.616	4.7
802.004	4.1
802.392	-1.7
802.781	-2.1
803.169	3.6
803.557	1.4
803.945	-6.4
804.333	2.9
804.721	1.7
805.109	2.5
805.497	-3.1
805.885	0.5
806.273	2.7
806.661	-1.1
807.048	-1.7
807.436	-5.1
807.824	-7.3
808.211	-2.3
808.599	2.2
808.986	-13.1
809.373	9.2
809.761	3.7
810.148	-4.9
810.535	1.5
810.922	-6.6
811.309	-5.5
811.696	-7.4
812.083	-9.9
812.47	-3.1
812.857	-1.2
813.244	-5.9
813.631	5
814.017	-1.2
814.404	-3.4
814.791	9.3
815.177	-4.8
815.564	-5.1
815.95	-1.3
816.336	-3
816.723	-4.7
817.109	-13.8
817.495	0
817.881	-0.6
818.267	-3.3
818.653	-4
819.039	-8.5
819.425	-6.1
819.811	-6.4
820.197	-9.5
820.582	-4.2
820.968	1.4
821.354	-1.4
821.739	7.5
822.125	-9.1
822.51	-5.8
822.895	-4.7
823.281	-4.7
823.666	-3
824.051	-7.3
824.436	-8.6
824.822	-8.8
825.207	-11.5
825.592	-14.9
825.976	-8.6
826.361	-13.1
826.746	-3
827.131	-10.8
827.516	0.8
827.9	-7.1
828.285	-5.5
828.669	2.1
829.054	-0.9
829.438	-4.5
829.823	-6.4
830.207	-2.2
830.591	-11.6
830.975	2.5
831.36	-7.9
831.744	0.3
832.128	-3.7
832.512	-6.8
832.895	-3.1
833.279	-7.8
833.663	-3.5
834.047	1.1
834.431	1.7
834.814	-14.6
835.198	-2.5
835.581	1.3
835.965	-5.9
836.348	2.8
836.731	3.3
837.115	-0.5
837.498	-13.8
837.881	-7.4
838.264	-2.7
838.647	-7.1
839.03	-2.6
839.413	-4.3
839.796	-4.4
840.179	-3.8
840.562	-9.8
840.944	-6.5
841.327	-11.5
841.71	-5.4
842.092	-9.2
842.475	-2
842.857	-15.4
843.24	-1.8
843.622	1.6
844.004	-5.6
844.386	-10.7
844.769	3
845.151	2.1
845.533	-11.4
845.915	-1.8
846.297	-3.3
846.678	-2.4
847.06	-1.6
847.442	-1.6
847.824	-3.1
848.205	-6.5
848.587	-9.3
848.968	-8.2
849.35	3
849.731	5.5
850.113	-3.7
850.494	-10.2
850.875	-6.8
851.256	-9.7
851.638	-8.5
852.019	2.5
852.4	-2.5
852.781	-3
853.161	-10.5
853.542	-5.8
853.923	-7.9
854.304	5.2
854.685	4.4
855.065	-2.6
855.446	-2.2
855.826	2.1
856.207	1.1
856.587	-7.3
856.967	0.5
857.348	-5.8
857.728	-3.2
858.108	-2.6
858.488	-4.1
858.868	-0.9
859.248	6.7
859.628	-5.2
860.008	-3
860.388	-6.2
860.768	-5
861.147	-6.9
861.527	-6.7
861.907	-1.6
862.286	-1.8
862.666	2.2
863.045	-9.5
863.424	-13.8
863.804	-1.6
864.183	1.6
864.562	0.3
864.941	4.5
865.32	-3.5
865.699	-12.3
866.078	-7.1
866.457	1.2
866.836	-3.6
867.215	-5.9
867.594	-7.3
867.972	-8.3
868.351	4.4
868.729	-9.7
869.108	-2.2
869.486	-11.9
869.865	-7.3
870.243	0.1
870.621	-10.2
871	-8.3
871.378	-5
871.756	-1.6
872.134	0.4
872.512	-1.7
872.89	-18.7
873.268	-4
873.646	-8.2
874.023	-14.5
874.401	-13.4
874.779	2.2
875.156	0.5
875.534	6.8
875.911	-1.2
876.289	4.7
876.666	-13.3
877.043	-19.2
877.421	-9.8
877.798	-12.6
878.175	-4
878.552	0.8
878.929	-12.6
879.306	-13.6
879.683	-7.6
880.06	-9.7
880.437	-6.5
880.813	-13.6
881.19	-12.3
881.567	-10.4
881.943	-13.2
882.32	-7.5
882.696	-12.9
883.073	-10
883.449	-9
883.825	-13.3
884.202	-9.4
884.578	-17
884.954	-6.9
885.33	-4.5
885.706	-11
886.082	1.1
886.458	-8.9
886.834	-7.1
887.209	-4.7
887.585	-5.3
887.961	-5
888.336	-0.5
888.712	-12.4
889.087	-4.3
889.463	-2.6
889.838	-5.9
890.213	-13.7
890.589	1.4
890.964	-11.5
891.339	-9.9
891.714	0.7
892.089	-4.2
892.464	0.5
892.839	-6
893.214	-9.4
893.589	-1.7
893.963	-3.8
894.338	-6.9
894.713	-7.6
895.087	1.7
895.462	-0.4
895.836	0.6
896.211	8
896.585	-2.8
896.959	-4.9
897.334	-2.1
897.708	-5.4
898.082	-5.6
898.456	-15.1
898.83	-3.7
899.204	2.1
899.578	5.4
899.952	0
900.325	-1.3
900.699	0.2
901.073	3
901.446	-3.1
901.82	4.1
902.193	13.6
902.567	9.9
902.94	3.3
903.313	-1.3
903.687	14.5
904.06	5.6
904.433	1
904.806	11.3
905.179	4.7
905.552	-5.1
905.925	7.5
906.298	-3.5
906.671	2.7
907.043	8
907.416	-0.5
907.789	12.3
908.161	5.9
908.534	9.9
908.906	-3
909.279	-4
909.651	9
910.023	4.1
910.396	4.5
910.768	2.1
911.14	6.5
911.512	12.4
911.884	9.3
912.256	8.5
912.628	3.1
912.999	3.7
913.371	11.9
913.743	11.8
914.115	-2.9
914.486	-4.7
914.858	7.4
915.229	6.9
915.601	4.5
915.972	12.3
916.343	10.6
916.715	15
917.086	8.2
917.457	9
917.828	8.3
918.199	19.8
918.57	11.8
918.941	5.9
919.312	8.7
919.682	5.9
920.053	13.2
920.424	21.9
920.794	4.2
921.165	7.7
921.536	7.9
921.906	6.8
922.276	4.1
922.647	-8.9
923.017	3.9
923.387	7.8
923.757	-1.1
924.127	2.1
924.497	10.6
924.867	5.4
925.237	10.6
925.607	5.6
925.977	2.9
926.347	8.3
926.716	-1.1
927.086	1.4
927.456	0
927.825	-0.5
928.195	6.8
928.564	9.5
928.933	3
929.303	-1.1
929.672	5.2
930.041	3.9
930.41	6.6
930.779	9.8
931.148	3.5
931.517	14.5
931.886	4.5
932.255	8.7
932.624	2.7
932.993	11.5
933.361	8.9
933.73	2.4
934.098	4.8
934.467	17.4
934.835	12.4
935.204	1.4
935.572	6.5
935.94	4.2
936.308	11.5
936.677	7.5
937.045	19.8
937.413	12.5
937.781	18.2
938.149	10.5
938.516	13.8
938.884	16.4
939.252	17.2
939.62	12.6
939.987	11.1
940.355	18.3
940.722	23.8
941.09	0.3
941.457	7.7
941.825	11.2
942.192	5.7
942.559	13.3
942.926	5.6
943.293	19.4
943.66	15.6
944.027	16.5
944.394	15.1
944.761	6.2
945.128	5.1
945.495	7.9
945.861	4.7
946.228	5.8
946.595	2.5
946.961	12.4
947.328	5.4
947.694	2.3
948.06	4.5
948.427	2.5
948.793	-1.6
949.159	4.2
949.525	-1.9
949.891	7.3
950.257	9.8
950.623	9.4
950.989	8.5
951.355	2.9
951.721	0.9
952.087	-2.2
952.452	7.9
952.818	6.8
953.183	5.5
953.549	3.4
953.914	11.4
954.28	5.8
954.645	4.1
955.01	3.9
955.375	3.1
955.741	10
956.106	-1.3
956.471	4.3
956.836	-5.6
957.201	12.9
957.566	-3
957.93	2.1
958.295	0.8
958.66	5.6
959.024	3.4
959.389	6.3
959.753	1.9
960.118	-3.8
960.482	-4
960.847	-2.4
961.211	1
961.575	-8.5
961.939	0
962.303	9.1
962.667	2.1
963.031	-10.1
963.395	-1.8
963.759	-1.8
964.123	-9.1
964.487	-3.1
964.851	4.8
965.214	5
965.578	0.5
965.941	6.5
966.305	-0.4
966.668	-8.5
967.032	-3.8
967.395	-6.5
967.758	4.8
968.121	6.7
968.484	2.9
968.847	-3.9
969.21	-4.3
969.573	1.2
969.936	-0.6
970.299	-2.6
970.662	-5.3
971.025	-0.6
971.387	-6
971.75	0.6
972.112	-0.8
972.475	-0.4
972.837	2.4
973.2	-5.9
973.562	-7.6
973.924	2.3
974.286	-2.6
974.649	0.6
975.011	3
975.373	-0.3
975.735	-6.4
976.097	0
976.458	-2.2
976.82	-10.1
977.182	1.5
977.544	-4.9
977.905	-0.7
978.267	-3.7
978.628	-0.8
978.99	-0.5
979.351	0.7
979.712	1.7
980.074	5.7
980.435	0.8
980.796	-18.7
981.157	-0.6
981.518	5.1
981.879	1.6
982.24	2.5
982.601	6.4
982.962	-5.3
983.323	-2.2
983.683	-10.6
984.044	-0.1
984.404	-7.4
984.765	-5.1
985.125	-5.1
985.486	-1.1
985.846	-11.1
986.206	-2.7
986.567	4.7
986.927	-0.4
987.287	-4.1
987.647	7.5
988.007	-3.9
988.367	-4.4
988.727	-3.4
989.087	-2.2
989.446	-6.6
989.806	-10.2
990.166	-7.4
990.525	2.4
990.885	-5.8
991.244	-12.8
991.604	-7
991.963	-6
992.322	-6.2
992.682	-1.8
993.041	-8.4
993.4	-2.8
993.759	-3.8
994.118	-2.8
994.477	0.6
994.836	-0.8
995.195	-7.3
995.553	1.4
995.912	-0.5
996.271	-0.5
996.629	-3.1
996.988	-1.5
997.346	-5.5
997.705	4.2
998.063	-2.7
998.422	1.8
998.78	-6.5
999.138	-5.1
999.496	-9.6
999.854	-9.4
1000.212	-0.4
1000.57	-10.7
1000.928	-5.3
1001.286	-6.9
1001.644	-6.5
1002.001	-2.8
1002.359	-2
1002.717	-7
1003.074	-11.9
1003.432	-4.8
1003.789	-11.6
1004.147	-14.4
1004.504	-0.7
1004.861	-5.1
1005.218	-8.6
1005.576	-7.3
1005.933	-8.9
1006.29	-11
1006.647	-3.6
1007.004	-3
1007.36	-8.6
1007.717	-15.7
1008.074	2.8
1008.431	-1.8
1008.787	-2.5
1009.144	-6.8
1009.5	-9.6
1009.857	4.7
1010.213	2.5
1010.569	-2.5
1010.926	-11.9
1011.282	-13.9
1011.638	-11.7
1011.994	2.1
1012.35	-19.9
1012.706	-7.3
1013.062	-6.4
1013.418	-8.7
1013.774	-9.8
1014.13	-6.7
1014.485	0.7
1014.841	-6
1015.197	-9.8
1015.552	0.5
1015.907	-2.2
1016.263	1.3
1016.618	-3.7
1016.974	-10.2
1017.329	-13.7
1017.684	-6
1018.039	-2.4
1018.394	-15.1
1018.749	-10.2
1019.104	-9.8
1019.459	-2.5
1019.814	-4.3
1020.168	-6.4
1020.523	-9.4
1020.878	0.9
1021.232	-11
1021.587	-1
1021.941	-8.6
1022.296	-1.9
1022.65	-8.1
1023.004	-10.9
1023.359	0.4
1023.713	-2.6
1024.067	-13.9
1024.421	-2
1024.775	-3.6
1025.129	-3.5
1025.483	-11
1025.837	3.3
1026.19	-5.4
1026.544	-12.1
1026.898	-7.3
1027.251	-19
1027.605	-2.2
1027.958	-11.7
1028.312	-15.4
1028.665	-4.7
1029.018	-11.9
1029.372	-7.2
1029.725	-4.4
1030.078	-10.2
1030.431	-5.8
1030.784	-11
1031.137	0.5
1031.49	-4.5
1031.843	-7.8
1032.195	-1.2
1032.548	-3.2
1032.901	-4.1
1033.253	-12.3
1033.606	-13.6
1033.958	-9.3
1034.311	-7.5
1034.663	-1.1
1035.016	-2.3
1035.368	-15.6
1035.72	-2.1
1036.072	-5.1
1036.424	-4.8
1036.776	-5.3
1037.128	-13
1037.48	-8.3
