Data from 2.0bar_Subt2__0__19-33-47-027.txt Node

Date: Thu Jan 06 19:33:47 CET 2022
User: fsatto
Spectrometer: OFX01956
Trigger mode: 0
Integration Time (sec): 1.000000E-3
Scans to average: 10
Nonlinearity correction enabled: false
Boxcar width: 0
Storing dark spectrum: false
XAxis mode: Wavelengths
Number of Pixels in Spectrum: 2136
>>>>>Begin Spectral Data<<<<<
158.236	-3.7
158.705	3.6
159.174	2.6
159.643	2.5
160.112	-4.3
160.582	-1.6
161.051	-3
161.52	8.1
161.988	-8.1
162.457	-2.4
162.926	-12.4
163.395	1.3
163.864	-1.9
164.332	6.1
164.801	-1.1
165.269	1.2
165.738	-5.6
166.206	-2.5
166.675	-3.7
167.143	-1.3
167.612	-11.1
168.08	-2.5
168.548	-4.5
169.016	0
169.484	-2
169.952	-4.3
170.42	-2.4
170.888	-10.7
171.356	-6.5
171.824	-2.8
172.292	-11.2
172.759	2
173.227	-3.4
173.695	-14.5
174.162	-4.5
174.63	2.5
175.097	-5.4
175.565	-0.8
176.032	-3.3
176.499	-8.3
176.967	0.4
177.434	3.9
177.901	-5.8
178.368	-3
178.835	-4.1
179.302	-5.9
179.769	-2.3
180.236	0.1
180.703	1.9
181.17	2.3
181.637	-5.3
182.103	-5
182.57	-3.6
183.036	0.1
183.503	-0.8
183.97	7.3
184.436	-5.1
184.902	-2
185.369	-2.8
185.835	3.2
186.301	4.7
186.767	-9.4
187.234	-3
187.7	-7.2
188.166	1.3
188.632	-1.2
189.098	-1.7
189.563	-10.6
190.029	-4.9
190.495	-4.2
190.961	-0.8
191.426	-6.8
191.892	1.6
192.358	0.6
192.823	-7.2
193.289	-6.6
193.754	1.1
194.219	-4.3
194.685	5.2
195.15	-6.6
195.615	-9.6
196.08	-6.2
196.545	-1.6
197.01	-3.6
197.475	-10.9
197.94	-7
198.405	-4.6
198.87	-4.3
199.335	-6.3
199.8	-7.8
200.264	914.5
200.729	967.8
201.193	970.6
201.658	974.1
202.122	1046.6
202.587	1085.3
203.051	1104.3
203.516	1148.1
203.98	1210.2
204.444	1327.5
204.908	1375.1
205.372	1459.1
205.836	1513.2
206.3	1580.4
206.764	1696
207.228	1754.9
207.692	1779.5
208.156	1897.5
208.62	2152.9
209.083	2386.1
209.547	2579.4
210.011	2779.7
210.474	3047.3
210.938	3453.1
211.401	3693.6
211.864	3997
212.328	4374.1
212.791	4720.7
213.254	5183.5
213.717	5731.7
214.181	6262.3
214.644	6785.8
215.107	7055.5
215.57	7151.8
216.033	7616.9
216.495	8347.4
216.958	8788.4
217.421	9015.7
217.884	9376.8
218.346	9548.5
218.809	9793.6
219.272	10425.9
219.734	11398.7
220.196	11882.3
220.659	12629.3
221.121	12961.9
221.584	12693.1
222.046	12341.3
222.508	12100.7
222.97	12348.8
223.432	13280.1
223.894	14384.5
224.356	14645.6
224.818	14696
225.28	15212.7
225.742	16103.8
226.204	17463.6
226.665	17878.7
227.127	17493.9
227.589	16631.8
228.05	17016.3
228.512	17533.5
228.973	17826.5
229.435	17905
229.896	17477.5
230.357	16899.8
230.818	16562.8
231.28	16787.7
231.741	17144.8
232.202	17032.2
232.663	16268.1
233.124	15687.4
233.585	15816.1
234.046	16593.7
234.507	17323.2
234.967	17274.7
235.428	16786.4
235.889	16723.6
236.349	17538.1
236.81	18471.6
237.271	18961.1
237.731	18960.1
238.191	18364.8
238.652	17438.7
239.112	16890.8
239.572	17573.6
240.033	18187.7
240.493	17403
240.953	15680.4
241.413	14296.2
241.873	14320.5
242.333	14226.4
242.793	14109
243.253	14647.6
243.712	15700.7
244.172	16226.1
244.632	16608.6
245.092	17276.5
245.551	18351.4
246.011	20274
246.47	21234.5
246.93	20891.3
247.389	21357.6
247.848	23054.3
248.308	24931.9
248.767	26278.5
249.226	25754.6
249.685	23820.6
250.144	22755.2
250.603	23310
251.062	24467.3
251.521	25439.4
251.98	26805.1
252.439	27393.4
252.897	27476
253.356	27967.7
253.815	28127.8
254.273	27548.2
254.732	28097.8
255.19	28398.5
255.649	27909.4
256.107	26230.1
256.566	25340.7
257.024	24899.5
257.482	24552
257.94	24449.9
258.398	25390.8
258.856	25527
259.315	24849.7
259.772	24684.2
260.23	25891.9
260.688	26338.4
261.146	26268.1
261.604	26290.3
262.062	26406.9
262.519	25746.4
262.977	24470.2
263.434	24437.4
263.892	24743.1
264.349	24016.4
264.807	22570.6
265.264	21415.3
265.721	21138
266.179	21198.1
266.636	20315.5
267.093	18539.9
267.55	17750.6
268.007	18046
268.464	17918.4
268.921	17689.2
269.378	17957.5
269.835	17965.7
270.291	17535.6
270.748	16829.5
271.205	16864.5
271.661	17283.4
272.118	17314.5
272.574	16849.9
273.031	16311.4
273.487	15345
273.944	14637.5
274.4	13799.6
274.856	13616.9
275.312	13419.4
275.768	12538.7
276.225	11597.7
276.681	11085.4
277.137	10644
277.593	10614.2
278.048	10696.8
278.504	10487
278.96	10180.3
279.416	9882.5
279.871	9682.4
280.327	9618.4
280.783	9444.3
281.238	9317.5
281.694	9330.8
282.149	9304.3
282.604	9179.5
283.06	8817.3
283.515	8614.7
283.97	8516.3
284.425	8619.4
284.88	8659.5
285.335	8480.7
285.79	8130.6
286.245	7594.4
286.7	7295.8
287.155	7085.7
287.61	7185.2
288.064	7010.8
288.519	6827
288.974	6551
289.428	6154.4
289.883	5861.1
290.337	5903.8
290.792	5937
291.246	5867.5
291.7	5843.7
292.155	5759.1
292.609	5683.4
293.063	5518.6
293.517	5381.7
293.971	5510.4
294.425	5402.8
294.879	5419.3
295.333	5447.9
295.787	5143.9
296.241	4841.2
296.694	4602.8
297.148	4546.5
297.602	4273.8
298.055	4099.4
298.509	3992.5
298.962	3775.2
299.416	3435.2
299.869	3110.8
300.322	2847.6
300.775	2704.7
301.229	2512.3
301.682	2274.7
302.135	1982
302.588	1757.9
303.041	1568.3
303.494	1439.5
303.947	1319.4
304.4	1254.5
304.852	1214.3
305.305	1144.3
305.758	1110.7
306.21	1088.9
306.663	1057.7
307.115	1033.7
307.568	1035.1
308.02	1021.8
308.473	948.5
308.925	915.7
309.377	840.2
309.829	815.4
310.282	804.9
310.734	759.2
311.186	760.3
311.638	731.6
312.09	707.7
312.542	691.5
312.993	648.7
313.445	612.4
313.897	591.8
314.349	555.2
314.8	542.7
315.252	517.5
315.703	476.1
316.155	432.9
316.606	431.7
317.058	400.3
317.509	366.3
317.96	339
318.411	316.7
318.863	286.6
319.314	271.4
319.765	256.6
320.216	248.2
320.667	238.6
321.117	221.8
321.568	210.4
322.019	189.9
322.47	185
322.921	171
323.371	157.8
323.822	155.4
324.272	154.2
324.723	139.6
325.173	132.5
325.623	129.3
326.074	119.5
326.524	121.6
326.974	109.6
327.424	94
327.874	92.2
328.325	87
328.775	95.9
329.224	154.1
329.674	145.1
330.124	105.7
330.574	95.6
331.024	88.9
331.473	82.1
331.923	65.3
332.373	60.6
332.822	50.3
333.272	47.9
333.721	50
334.17	46.3
334.62	40.2
335.069	37.7
335.518	42.4
335.967	29.8
336.416	29.2
336.865	27.9
337.314	18.3
337.763	24.7
338.212	34.1
338.661	31.6
339.11	21.1
339.558	21.3
340.007	17.1
340.456	14
340.904	16.1
341.353	23.4
341.801	26.9
342.25	13.3
342.698	23.5
343.146	23.2
343.595	17.8
344.043	20.8
344.491	18.4
344.939	14.2
345.387	15.2
345.835	7.2
346.283	15.7
346.731	20.7
347.179	14.7
347.626	9.9
348.074	14.1
348.522	4.7
348.969	18.7
349.417	13.9
349.865	11.9
350.312	15.7
350.759	7.6
351.207	5
351.654	14.4
352.101	12.4
352.548	16.2
352.996	9.2
353.443	-0.1
353.89	3.6
354.337	17
354.784	5
355.231	7.1
355.677	2.5
356.124	-0.1
356.571	0.5
357.018	9.4
357.464	5.5
357.911	-9.4
358.357	-7.5
358.804	4.4
359.25	0.9
359.696	6.5
360.143	-9.1
360.589	5.4
361.035	9.4
361.481	-1.8
361.927	5.4
362.373	8.2
362.819	5.4
363.265	6.4
363.711	9
364.157	1.8
364.603	3.7
365.048	-1.4
365.494	11.7
365.94	0.8
366.385	-1.3
366.831	0.4
367.276	8.6
367.722	5.3
368.167	5.9
368.612	2.5
369.057	7.7
369.503	2.7
369.948	-2.2
370.393	1
370.838	16.6
371.283	6.7
371.728	8.4
372.173	10.1
372.617	2.5
373.062	-2.1
373.507	8.7
373.951	7.6
374.396	2
374.841	2.3
375.285	0.8
375.729	7.9
376.174	11.5
376.618	14.9
377.062	7.5
377.507	6.6
377.951	11.4
378.395	2.4
378.839	7.1
379.283	6.9
379.727	2.9
380.171	1.9
380.615	4
381.059	0.3
381.502	5.1
381.946	10.4
382.39	8.6
382.833	-1.4
383.277	1.3
383.72	0.9
384.164	-3.1
384.607	4.7
385.05	8.6
385.494	8.3
385.937	6
386.38	6.3
386.823	13.9
387.266	0.9
387.709	5.7
388.152	2
388.595	2.9
389.038	7
389.481	5.6
389.923	8.7
390.366	0.9
390.809	-1.7
391.251	1.3
391.694	-2.2
392.136	2.5
392.579	4.5
393.021	2.9
393.463	12
393.906	3.6
394.348	5.5
394.79	1.8
395.232	6.5
395.674	-1.6
396.116	-1.3
396.558	-3.7
397	1
397.442	6.6
397.884	7.4
398.325	12
398.767	-5.8
399.209	9.5
399.65	4.8
400.092	5.9
400.533	9.5
400.974	12.9
401.416	-1.2
401.857	-0.4
402.298	5.7
402.74	1.2
403.181	-3.4
403.622	6.4
404.063	-2.5
404.504	15.2
404.945	-0.3
405.386	8.4
405.826	-2.2
406.267	4.1
406.708	-1.2
407.149	3
407.589	5.4
408.03	6.9
408.47	-2.1
408.911	-0.8
409.351	4
409.791	-5.7
410.232	9.9
410.672	-1.6
411.112	7.9
411.552	1.6
411.992	7
412.432	8.5
412.872	-0.5
413.312	13
413.752	-2.6
414.192	-6.6
414.632	1.9
415.071	5.2
415.511	4.2
415.951	-5.1
416.39	13.5
416.83	-6.6
417.269	9.7
417.708	6.8
418.148	10.8
418.587	1.9
419.026	8.2
419.465	10.2
419.904	4.6
420.344	7.7
420.783	1
421.221	5.5
421.66	7.8
422.099	6.4
422.538	2.1
422.977	2.6
423.415	0.8
423.854	3.8
424.293	-0.4
424.731	5.9
425.17	3.8
425.608	8.4
426.046	4.3
426.485	-4.9
426.923	2.4
427.361	-0.5
427.799	-2.7
428.237	10.2
428.675	-9.1
429.113	5.8
429.551	11.5
429.989	-7
430.427	4.9
430.865	-1.4
431.303	6.3
431.74	1.3
432.178	5.1
432.615	3.4
433.053	4.9
433.49	1.9
433.928	4.2
434.365	1.3
434.802	0.9
435.24	4.8
435.677	7.9
436.114	3.5
436.551	7.3
436.988	8.5
437.425	4.6
437.862	2.5
438.299	7.6
438.736	2.5
439.172	6.4
439.609	7.7
440.046	-5.1
440.482	-3.7
440.919	1.6
441.355	-1.6
441.792	3.9
442.228	7.2
442.665	1.5
443.101	5.3
443.537	2.6
443.973	-0.4
444.409	13.9
444.845	0.1
445.281	-5.5
445.717	10.1
446.153	0.4
446.589	-3.8
447.025	-1.5
447.461	8
447.896	-0.8
448.332	-4.7
448.768	-5.1
449.203	-5.5
449.639	1.8
450.074	-3.1
450.509	-2.1
450.945	5
451.38	1.3
451.815	7.6
452.25	0.2
452.685	6.7
453.12	-2.7
453.555	5.3
453.99	5.9
454.425	5.8
454.86	-1.7
455.295	-9.2
455.73	7.6
456.164	-17.9
456.599	-2.4
457.033	4.3
457.468	-4.3
457.902	5.5
458.337	-4.8
458.771	-6.2
459.205	-5.3
459.64	4
460.074	-6.9
460.508	12.3
460.942	-3
461.376	4.3
461.81	17.4
462.244	4.3
462.678	-1.4
463.112	3
463.545	4.1
463.979	5.3
464.413	0.6
464.846	-0.2
465.28	3
465.713	2.5
466.147	1
466.58	3
467.014	-2.4
467.447	9.5
467.88	3.7
468.313	3.2
468.746	-8
469.179	5.2
469.612	-1.7
470.045	3.5
470.478	3.6
470.911	11.3
471.344	-0.2
471.777	8
472.209	9.8
472.642	-2.1
473.074	-2.6
473.507	-0.3
473.939	2.5
474.372	2.6
474.804	7.5
475.236	4.6
475.669	9.2
476.101	5.4
476.533	8.5
476.965	3
477.397	-3
477.829	3.2
478.261	12.4
478.693	3
479.125	-4.7
479.557	4.4
479.988	-1
480.42	9
480.852	2.2
481.283	0.8
481.715	1.1
482.146	-0.3
482.577	10.8
483.009	0.7
483.44	7.6
483.871	3.3
484.302	-1.1
484.734	11
485.165	-5.2
485.596	7.5
486.027	5.7
486.457	7.2
486.888	14
487.319	3.8
487.75	6.1
488.181	3
488.611	8.7
489.042	-0.7
489.472	1.3
489.903	-0.5
490.333	2.8
490.764	6.3
491.194	7.1
491.624	7.1
492.054	4.1
492.484	5.1
492.915	5.9
493.345	-1.3
493.775	2.5
494.204	0.9
494.634	-2.6
495.064	1.7
495.494	3.6
495.924	10.5
496.353	2.2
496.783	0.8
497.212	5.8
497.642	-5.8
498.071	-1.7
498.501	5.4
498.93	9.5
499.359	-8.6
499.789	-4.1
500.218	6.4
500.647	10.4
501.076	0
501.505	2
501.934	0.7
502.363	-5.6
502.792	0.8
503.221	1.4
503.649	3.5
504.078	1.7
504.507	-9
504.935	10.1
505.364	6
505.792	-4.3
506.221	-7.2
506.649	2.5
507.077	-7
507.506	4.7
507.934	3
508.362	5
508.79	-4
509.218	3.5
509.646	4.3
510.074	-5.9
510.502	1.3
510.93	-0.3
511.357	6.4
511.785	-10.5
512.213	-5.1
512.64	3
513.068	4.4
513.496	0.7
513.923	-2.5
514.35	-2
514.778	-3
515.205	-0.4
515.632	5.8
516.059	5.5
516.486	11.7
516.914	1.3
517.341	0.7
517.768	-1.5
518.194	2.5
518.621	5.5
519.048	3.7
519.475	10.5
519.902	2.2
520.328	2.4
520.755	8
521.181	3
521.608	0
522.034	6
522.461	6.9
522.887	-1.3
523.313	-5.5
523.739	-4.7
524.165	-2.6
524.592	-2.1
525.018	-5.4
525.444	0.9
525.869	5.6
526.295	-1.6
526.721	0.6
527.147	2.1
527.573	-4.3
527.998	3
528.424	18.7
528.849	-10.7
529.275	4.1
529.7	1.5
530.126	3.4
530.551	-2.3
530.976	5.8
531.402	-0.3
531.827	1.3
532.252	-6
532.677	8.6
533.102	-2.1
533.527	5.5
533.952	5.7
534.377	0
534.801	1.7
535.226	-8
535.651	6.7
536.076	3.1
536.5	-2.1
536.925	3.5
537.349	5.2
537.773	10.6
538.198	-0.7
538.622	-2.7
539.046	15.4
539.471	0.9
539.895	6.4
540.319	-4.7
540.743	3.4
541.167	5.1
541.591	-3.7
542.015	1.8
542.438	-3.9
542.862	-5.6
543.286	14
543.71	6.5
544.133	5.1
544.557	5.6
544.98	-8.6
545.404	0.4
545.827	10.7
546.25	2.7
546.674	-2.3
547.097	26.1
547.52	6.4
547.943	9.7
548.366	8.8
548.789	-8.6
549.212	1.2
549.635	1.7
550.058	-0.8
550.481	2.5
550.903	4.8
551.326	-5.3
551.749	5.9
552.171	4.8
552.594	5.2
553.016	6.4
553.438	11.8
553.861	3.8
554.283	-0.4
554.705	9.3
555.128	-1.4
555.55	14.9
555.972	0.1
556.394	9.5
556.816	1.1
557.238	4.2
557.659	-4.3
558.081	3.5
558.503	14.7
558.925	6
559.346	2.7
559.768	-0.7
560.189	7.4
560.611	-3.6
561.032	-6
561.454	1.3
561.875	1.4
562.296	3.4
562.718	3.4
563.139	3.8
563.56	-0.4
563.981	-0.9
564.402	-1
564.823	-3.8
565.244	3.4
565.664	5.1
566.085	1.3
566.506	-2.5
566.927	-0.7
567.347	1.6
567.768	0.3
568.188	-3
568.609	6.6
569.029	3.8
569.449	-2.1
569.87	0.7
570.29	-6.7
570.71	-3.5
571.13	3.7
571.55	-3
571.97	-2.2
572.39	-0.4
572.81	5.7
573.23	-6.5
573.65	-10.1
574.069	-3.3
574.489	-6.1
574.909	-9.8
575.328	7.4
575.748	-2.6
576.167	3.6
576.587	-5.7
577.006	2.2
577.425	3.5
577.844	0.7
578.264	-3
578.683	-4.7
579.102	-6.8
579.521	0.3
579.94	1.6
580.359	-1.6
580.778	5.6
581.196	-5
581.615	-7.8
582.034	0.5
582.452	-7.9
582.871	-6.7
583.29	0.3
583.708	-4.7
584.126	-1.2
584.545	-2.5
584.963	-2.9
585.381	2.2
585.8	-3.1
586.218	-3.9
586.636	-5.1
587.054	-12.7
587.472	-12.8
587.89	-10.2
588.308	-1.3
588.725	-9.4
589.143	-8
589.561	-6.7
589.979	1.4
590.396	2.1
590.814	-10.2
591.231	-9.4
591.649	-4
592.066	0.6
592.483	-10.3
592.901	9.9
593.318	-6.9
593.735	1.6
594.152	2.1
594.569	8.3
594.986	0
595.403	0.2
595.82	-1.8
596.237	6.5
596.654	-6.1
597.07	-0.4
597.487	1.6
597.904	-1.3
598.32	-2.9
598.737	-1.6
599.153	-2.8
599.57	3
599.986	-0.5
600.402	2.9
600.818	-4.1
601.235	-0.8
601.651	-4.6
602.067	1.4
602.483	-6.8
602.899	3.2
603.315	-1.4
603.73	2.3
604.146	-1.2
604.562	-4.5
604.978	-6.6
605.393	-1
605.809	-1.9
606.224	-3.3
606.64	-4.2
607.055	-10.7
607.471	-5.9
607.886	-9.1
608.301	-4.8
608.716	4.3
609.131	-9.9
609.547	-2.9
609.962	-0.9
610.377	4.7
610.791	-9.4
611.206	-1
611.621	-10.2
612.036	-5.1
612.451	-6.3
612.865	-2.1
613.28	-3.8
613.694	-2.6
614.109	-0.7
614.523	-1.8
614.938	-0.2
615.352	-2.2
615.766	-4.2
616.18	-1.2
616.595	8
617.009	-5.5
617.423	-0.7
617.837	2.5
618.251	1.9
618.664	9.5
619.078	2.4
619.492	14.2
619.906	5.3
620.319	15.3
620.733	10.6
621.146	17.3
621.56	17.6
621.973	7.3
622.387	25
622.8	17.1
623.213	22.4
623.627	25.5
624.04	18.4
624.453	18.5
624.866	19.4
625.279	14.1
625.692	10.2
626.105	31.5
626.518	24.8
626.93	19.1
627.343	30.1
627.756	27.6
628.168	27.6
628.581	32.7
628.993	37.9
629.406	18.4
629.818	30
630.231	42.6
630.643	50.2
631.055	36.6
631.467	51.6
631.879	59.8
632.291	51.6
632.703	63.3
633.115	67.2
633.527	79.8
633.939	85.2
634.351	78.1
634.763	84
635.174	82.9
635.586	98.7
635.997	84.4
636.409	96.9
636.82	105.9
637.232	104.9
637.643	103.1
638.054	109.2
638.466	119.2
638.877	112.2
639.288	128.8
639.699	117.6
640.11	122.6
640.521	119.1
640.932	129.7
641.343	126.8
641.753	130.7
642.164	147.3
642.575	142.8
642.986	128.5
643.396	134
643.807	127.9
644.217	130.7
644.627	116.5
645.038	136
645.448	134
645.858	128.8
646.269	135.9
646.679	125.2
647.089	111.2
647.499	115
647.909	118.2
648.319	114
648.728	120
649.138	104.3
649.548	96
649.958	99.4
650.367	97.7
650.777	87.3
651.186	86.4
651.596	89.6
652.005	74.6
652.415	73.4
652.824	77.1
653.233	71.8
653.642	69.8
654.052	71.4
654.461	71
654.87	78.3
655.279	70
655.688	64.6
656.096	66.1
656.505	64.8
656.914	63.9
657.323	61.5
657.731	58.5
658.14	70.9
658.548	59.7
658.957	57.4
659.365	58.1
659.774	49.9
660.182	61.5
660.59	56
660.998	51.6
661.407	45.5
661.815	54.3
662.223	42.9
662.631	50.8
663.039	47.6
663.446	39.7
663.854	43.3
664.262	43.3
664.67	40.1
665.077	39.1
665.485	38.7
665.892	33.4
666.3	35.1
666.707	27.3
667.115	34.2
667.522	32.3
667.929	24.6
668.337	27.5
668.744	24.4
669.151	23.3
669.558	25.1
669.965	17.9
670.372	17.4
670.779	17.1
671.185	6.4
671.592	22.2
671.999	13.6
672.405	13.1
672.812	6.9
673.219	2.2
673.625	-2.1
674.032	-1.4
674.438	-6
674.844	14
675.25	-5.6
675.657	5.5
676.063	9.3
676.469	5.6
676.875	-5.4
677.281	2.8
677.687	-7.6
678.093	3.8
678.499	2.7
678.904	-3.5
679.31	-6.4
679.716	-4.1
680.121	4.4
680.527	-4
680.932	10.1
681.338	1.5
681.743	-0.8
682.148	2.9
682.554	6.4
682.959	5.4
683.364	0.8
683.769	1.3
684.174	-8.3
684.579	-7.7
684.984	-3.1
685.389	-4.9
685.794	11.6
686.199	-9.2
686.603	-2.1
687.008	-1.9
687.413	-12
687.817	-7.1
688.222	3.8
688.626	-12.5
689.03	-5.8
689.435	1.4
689.839	-13.1
690.243	-7.7
690.647	-2.2
691.051	-5
691.456	-10.3
691.859	-13.9
692.263	-8.8
692.667	-6.2
693.071	-7
693.475	1.3
693.879	-2.1
694.282	-6.2
694.686	6
695.089	0.1
695.493	-3.8
695.896	-12.3
696.3	-10.6
696.703	-5.9
697.106	-6.1
697.509	-2.6
697.913	-2.9
698.316	-5.9
698.719	-1.2
699.122	-5.7
699.525	7.8
699.928	1.4
700.33	2
700.733	-2.2
701.136	-4.3
701.539	-1
701.941	-4.7
702.344	-1.9
702.746	-3.4
703.149	-4.3
703.551	-8.5
703.953	2.1
704.356	-3.8
704.758	1.8
705.16	-4.2
705.562	-3.9
705.964	-20
706.366	6.2
706.768	-6.3
707.17	-9
707.572	-4.9
707.973	-4.3
708.375	-0.9
708.777	-8.9
709.178	-11
709.58	-6.7
709.981	-4.1
710.383	-3.5
710.784	-6.1
711.186	-4.6
711.587	-4.7
711.988	-2.5
712.389	1.9
712.79	-9.3
713.191	1
713.592	-6.4
713.993	-8.7
714.394	0.4
714.795	-3
715.196	4.5
715.596	5.1
715.997	-12.7
716.398	6.1
716.798	-2.6
717.199	-4
717.599	3.8
718	-6.4
718.4	-8.7
718.8	-3.7
719.2	2.2
719.6	0
720.001	2.4
720.401	-3.7
720.801	3.5
721.201	-5.5
721.6	-3.8
722	0
722.4	-7.6
722.8	-1.6
723.199	1.6
723.599	4
723.998	-6.9
724.398	-5
724.797	-7.8
725.197	-2.6
725.596	13.1
725.995	5.2
726.394	3.3
726.794	-4.4
727.193	-4.7
727.592	-11.6
727.991	2.9
728.39	-3.9
728.789	1.4
729.187	-11
729.586	0.4
729.985	3.7
730.383	-5.2
730.782	3.9
731.181	-4.7
731.579	4.2
731.977	-9.3
732.376	-3.8
732.774	1.8
733.172	-6.7
733.571	6.7
733.969	14.3
734.367	-0.9
734.765	2.1
735.163	3
735.561	-2.6
735.959	3.5
736.356	-13.7
736.754	3.1
737.152	5.2
737.55	3
737.947	3.4
738.345	3
738.742	6.4
739.14	6.6
739.537	4.2
739.934	5.9
740.331	12.2
740.729	15
741.126	4.9
741.523	4.7
741.92	4.9
742.317	2.7
742.714	14.1
743.111	4.4
743.507	0.1
743.904	2.7
744.301	14.5
744.697	0
745.094	6.5
745.491	-0.4
745.887	7.2
746.283	9
746.68	3.7
747.076	-1.8
747.472	3
747.869	7.7
748.265	11.6
748.661	5
749.057	-3.8
749.453	4.3
749.849	4.2
750.244	10.3
750.64	12.7
751.036	6.3
751.432	10.5
751.827	6.8
752.223	11.5
752.618	13.5
753.014	9.5
753.409	13.2
753.805	10.4
754.2	16.1
754.595	14.9
754.99	5
755.385	17.5
755.78	10
756.175	8.1
756.57	4.2
756.965	7.1
757.36	22.6
757.755	19.6
758.15	19.4
758.544	18
758.939	39
759.334	40
759.728	33.9
760.122	41.2
760.517	51.7
760.911	42.9
761.306	47.5
761.7	41.9
762.094	57
762.488	35.3
762.882	44.7
763.276	34.1
763.67	31.6
764.064	36.7
764.458	35.1
764.852	39.7
765.245	45.4
765.639	40.2
766.033	49.5
766.426	49.3
766.82	57.4
767.213	63.8
767.606	62.7
768	54.8
768.393	50
768.786	55.1
769.179	67.9
769.572	59.6
769.966	48.3
770.358	41.3
770.751	51.7
771.144	37.7
771.537	36.9
771.93	40.3
772.323	41.1
772.715	39.3
773.108	43.1
773.5	40.3
773.893	26.3
774.285	37.9
774.678	20.5
775.07	26
775.462	40.5
775.854	23
776.247	19.5
776.639	22
777.031	13.4
777.423	19.9
777.815	17.6
778.207	19.2
778.598	11.5
778.99	16.8
779.382	20.9
779.773	24.4
780.165	21.2
780.557	30.9
780.948	34.4
781.339	41.9
781.731	42
782.122	47.4
782.513	51.7
782.905	43.1
783.296	45.7
783.687	35.5
784.078	39.2
784.469	42.7
784.86	45.1
785.251	37.2
785.641	40.6
786.032	39.9
786.423	34.1
786.813	30.8
787.204	44.5
787.594	26.5
787.985	36.1
788.375	37.9
788.766	35.5
789.156	22.8
789.546	31
789.936	28.6
790.326	11.7
790.717	24.9
791.107	16.4
791.497	10.1
791.886	12
792.276	13.8
792.666	18.7
793.056	13.6
793.445	7.6
793.835	16.3
794.225	21.8
794.614	13.2
795.004	18.3
795.393	8.8
795.782	10.3
796.172	14
796.561	13.4
796.95	8.6
797.339	19.1
797.728	8.3
798.117	11.4
798.506	30
798.895	12.2
799.284	11.6
799.673	12
800.061	-0.9
800.45	11.5
800.839	9.9
801.227	10.5
801.616	8.4
802.004	9.4
802.392	1.3
802.781	1.4
803.169	4.8
803.557	9.7
803.945	1.1
804.333	4.7
804.721	7.1
805.109	-1.1
805.497	0.4
805.885	2.7
806.273	6.2
806.661	7.8
807.048	-5.7
807.436	1.2
807.824	-8.9
808.211	8.8
808.599	-1.7
808.986	-7
809.373	10.4
809.761	0.2
810.148	-1.2
810.535	-4
810.922	-1.1
811.309	-8.5
811.696	-4.6
812.083	-2.4
812.47	-4.6
812.857	-0.8
813.244	3.4
813.631	4.3
814.017	-6
814.404	-5.3
814.791	8.5
815.177	-2.2
815.564	3.2
815.95	5.9
816.336	7
816.723	-4.7
817.109	1.7
817.495	-4.3
817.881	-8.8
818.267	1.4
818.653	0.1
819.039	-1.3
819.425	-3.4
819.811	-3.7
820.197	-5.5
820.582	-4
820.968	-2.5
821.354	-2.4
821.739	0
822.125	-4.9
822.51	4.7
822.895	-13
823.281	-2.6
823.666	-3.5
824.051	0.8
824.436	-5.6
824.822	-11.5
825.207	-0.8
825.592	-13.7
825.976	-9.4
826.361	2
826.746	0.8
827.131	-2.2
827.516	0.9
827.9	-1.2
828.285	-9.9
828.669	-4.3
829.054	3.3
829.438	-2
829.823	-6
830.207	-4.8
830.591	-10.2
830.975	0.7
831.36	2.6
831.744	0
832.128	-11.6
832.512	-8.9
832.895	-3.7
833.279	-1.3
833.663	0
834.047	-4.7
834.431	1.1
834.814	-3.5
835.198	-2.5
835.581	-6.3
835.965	-15
836.348	5.6
836.731	-0.6
837.115	0.4
837.498	-9.9
837.881	-11.7
838.264	-8.5
838.647	-11.7
839.03	-6
839.413	-7.2
839.796	-9.7
840.179	-1
840.562	-7.1
840.944	0.2
841.327	2.6
841.71	-3
842.092	0.7
842.475	2.5
842.857	-2.5
843.24	2.5
843.622	3.8
844.004	-3.7
844.386	-6.9
844.769	0.8
845.151	1.7
845.533	-3.4
845.915	-1.8
846.297	-3.3
846.678	-13.3
847.06	-0.8
847.442	5.5
847.824	-5.9
848.205	-6.9
848.587	-12.3
848.968	8
849.35	5.5
849.731	0.9
850.113	0.6
850.494	-9.1
850.875	0.3
851.256	-10.7
851.638	2.3
852.019	4.4
852.4	-3.9
852.781	-4.4
853.161	-0.4
853.542	1.9
853.923	-8.3
854.304	3.8
854.685	7.4
855.065	-0.8
855.446	-1
855.826	-6.4
856.207	-4.5
856.587	-4.3
856.967	0.1
857.348	-6.2
857.728	-0.2
858.108	1.3
858.488	-3.8
858.868	-1.3
859.248	13.5
859.628	1.2
860.008	-0.8
860.388	-4.4
860.768	4.8
861.147	-1.5
861.527	-12.8
861.907	4.7
862.286	1.3
862.666	1.5
863.045	-5.5
863.424	-4.9
863.804	3.9
864.183	3.4
864.562	0
864.941	9.4
865.32	-0.8
865.699	-9.9
866.078	-4
866.457	7.2
866.836	4
867.215	-5
867.594	-0.4
867.972	2.3
868.351	0.1
868.729	-2.1
869.108	3.7
869.486	-6.4
869.865	-0.9
870.243	-1
870.621	5.2
871	0.4
871.378	-1.6
871.756	-0.7
872.134	-3.9
872.512	-2.5
872.89	-9.7
873.268	-10.9
873.646	3.1
874.023	-1.8
874.401	-0.1
874.779	-3.9
875.156	-4
875.534	4.1
875.911	4.4
876.289	0.9
876.666	-9
877.043	-8.5
877.421	-7.7
877.798	-6
878.175	-1.3
878.552	2.3
878.929	-0.2
879.306	-6.7
879.683	-5.5
880.06	3.5
880.437	0.3
880.813	-4.1
881.19	-5.9
881.567	-11.2
881.943	-11.7
882.32	-8.3
882.696	-4.2
883.073	-8.6
883.449	-9.4
883.825	-6.9
884.202	3.2
884.578	-8.7
884.954	-8.1
885.33	-3.7
885.706	-5.5
886.082	-1.2
886.458	-8.6
886.834	-3.9
887.209	-4.8
887.585	8.7
887.961	-1
888.336	5
888.712	-11.5
889.087	-2.1
889.463	-1.7
889.838	4.4
890.213	-9
890.589	0.2
890.964	-9.1
891.339	-5.6
891.714	3.8
892.089	5.4
892.464	-8
892.839	-5.9
893.214	-3.5
893.589	0
893.963	-2
894.338	1.3
894.713	-2.1
895.087	19
895.462	2.5
895.836	-0.7
896.211	0.6
896.585	-3.8
896.959	0.3
897.334	8.6
897.708	-2.4
898.082	-2.1
898.456	-4.2
898.83	3.9
899.204	-0.1
899.578	7.1
899.952	0.5
900.325	1.4
900.699	-3.3
901.073	5.5
901.446	2.5
901.82	12.7
902.193	9.5
902.567	8.8
902.94	-1.2
903.313	4.4
903.687	6.1
904.06	0.2
904.433	5.2
904.806	4.1
905.179	11.3
905.552	2.5
905.925	6.7
906.298	-2.5
906.671	-3
907.043	6.3
907.416	8.8
907.789	16.7
908.161	12.6
908.534	8.6
908.906	-8
909.279	6.5
909.651	9.4
910.023	12.3
910.396	2.8
910.768	-3.4
911.14	9.4
911.512	23.1
911.884	16.7
912.256	12.4
912.628	-0.9
912.999	8.5
913.371	11
913.743	14
914.115	-3.4
914.486	3.3
914.858	17
915.229	9.4
915.601	12.8
915.972	12.8
916.343	11.3
916.715	6.3
917.086	4.1
917.457	15
917.828	21.4
918.199	13.9
918.57	12.6
918.941	3.9
919.312	17.2
919.682	7.1
920.053	12.5
920.424	11.6
920.794	3.8
921.165	4.9
921.536	12.5
921.906	10.6
922.276	11
922.647	-11.1
923.017	4.8
923.387	15.9
923.757	0.9
924.127	9.9
924.497	17.2
924.867	10.8
925.237	15.2
925.607	6.8
925.977	4.2
926.347	14.6
926.716	12.7
927.086	10.1
927.456	4.2
927.825	13.5
928.195	14.1
928.564	24.7
928.933	9.7
929.303	11.7
929.672	5.9
930.041	16.5
930.41	9.1
930.779	13.7
931.148	13.3
931.517	16.1
931.886	11.2
932.255	17.9
932.624	18.9
932.993	17.5
933.361	11.4
933.73	9.9
934.098	10.7
934.467	25.5
934.835	21.7
935.204	9.9
935.572	12.6
935.94	20
936.308	21
936.677	8.3
937.045	18.8
937.413	18.9
937.781	22
938.149	18.6
938.516	15.9
938.884	21.1
939.252	17.5
939.62	14.3
939.987	13.7
940.355	17
940.722	21.5
941.09	1.8
941.457	11.1
941.825	13.4
942.192	12
942.559	20.9
942.926	15.7
943.293	13.2
943.66	15
944.027	14.7
944.394	15.4
944.761	3.4
945.128	13
945.495	19.1
945.861	16.1
946.228	10.3
946.595	5.5
946.961	15
947.328	10.5
947.694	9.9
948.06	14.4
948.427	5.7
948.793	7.8
949.159	11
949.525	12.2
949.891	2.1
950.257	11.5
950.623	13.2
950.989	5.3
951.355	3.3
951.721	5.9
952.087	4.2
952.452	8.3
952.818	11.4
953.183	6
953.549	8.5
953.914	7.6
954.28	1.3
954.645	4.2
955.01	2.6
955.375	1.4
955.741	8.1
956.106	-1.1
956.471	8
956.836	6.8
957.201	15.7
957.566	3.4
957.93	1.6
958.295	9.4
958.66	1.4
959.024	15
959.389	12
959.753	11.8
960.118	-1.8
960.482	6.8
960.847	8.1
961.211	-3
961.575	-5
961.939	5.4
962.303	8
962.667	5.7
963.031	-6.3
963.395	2.7
963.759	5.9
964.123	3.5
964.487	4.9
964.851	-1.3
965.214	5.5
965.578	1.6
965.941	3
966.305	4.3
966.668	-0.9
967.032	-6.1
967.395	-1.8
967.758	-2.8
968.121	1.5
968.484	1.2
968.847	1.7
969.21	5.5
969.573	6.4
969.936	4.7
970.299	1.9
970.662	-0.5
971.025	6.1
971.387	-3.6
971.75	-2.1
972.112	-2.2
972.475	0.8
972.837	10
973.2	3.1
973.562	7.7
973.924	0.8
974.286	2.5
974.649	3.7
975.011	7.2
975.373	0.9
975.735	-8.1
976.097	2.7
976.458	-5.7
976.82	3.5
977.182	3.3
977.544	-11.6
977.905	2.3
978.267	-3.1
978.628	3.4
978.99	-1.7
979.351	1
979.712	8.5
980.074	-11.8
980.435	0.1
980.796	-9.1
981.157	-5.1
981.518	0.3
981.879	-2.3
982.24	1.4
982.601	0.6
982.962	-4.7
983.323	-1.6
983.683	-6.4
984.044	-0.9
984.404	-6.8
984.765	-1.5
985.125	-8.6
985.486	3.1
985.846	-4.7
986.206	-10.9
986.567	5.8
986.927	1.3
987.287	1
987.647	1.2
988.007	-4.8
988.367	-0.4
988.727	-6.8
989.087	0.7
989.446	0.4
989.806	-7.8
990.166	-2.8
990.525	2.9
990.885	0.5
991.244	-3.8
991.604	-8.5
991.963	5.9
992.322	5.8
992.682	-5.2
993.041	-0.9
993.4	-1.3
993.759	-6.3
994.118	1.8
994.477	3.7
994.836	-3.4
995.195	-2.2
995.553	3.1
995.912	-1.5
996.271	0.9
996.629	-7.3
996.988	0.2
997.346	-5
997.705	2.9
998.063	0.7
998.422	8.8
998.78	-2.9
999.138	1.8
999.496	-3.2
999.854	-7.2
1000.212	-6.4
1000.57	-6.4
1000.928	-11.4
1001.286	-1.7
1001.644	-3.2
1002.001	-2.7
1002.359	-5.3
1002.717	4.5
1003.074	-14.2
1003.432	-4.1
1003.789	-6.5
1004.147	-9.3
1004.504	-4.4
1004.861	-8.5
1005.218	-3
1005.576	-6.9
1005.933	-6.8
1006.29	-4.4
1006.647	2.8
1007.004	-2.3
1007.36	1
1007.717	-3.5
1008.074	-2.5
1008.431	-2.2
1008.787	4.3
1009.144	-3.6
1009.5	-3.5
1009.857	3.5
1010.213	2.6
1010.569	-4.6
1010.926	-5.1
1011.282	-15.3
1011.638	-8.6
1011.994	-0.2
1012.35	-19.4
1012.706	-6.1
1013.062	1.6
1013.418	4.4
1013.774	-2
1014.13	-1.1
1014.485	-2.3
1014.841	-6.9
1015.197	-7.3
1015.552	-5.8
1015.907	2.9
1016.263	-2.1
1016.618	4.2
1016.974	-1.4
1017.329	-7
1017.684	-1.7
1018.039	5.6
1018.394	-5.2
1018.749	2.5
1019.104	-1
1019.459	4.2
1019.814	3.1
1020.168	-3.9
1020.523	-4.5
1020.878	1
1021.232	-4.2
1021.587	9.9
1021.941	-5.1
1022.296	-2.7
1022.65	-4.7
1023.004	-14.4
1023.359	6.8
1023.713	-8.7
1024.067	-8.7
1024.421	-1.3
1024.775	-4.4
1025.129	-2.1
1025.483	-8.2
1025.837	2.9
1026.19	-7.3
1026.544	-7.4
1026.898	2.7
1027.251	-8.7
1027.605	-0.5
1027.958	-8.7
1028.312	-9.5
1028.665	-2.3
1029.018	0.9
1029.372	-3.4
1029.725	0.4
1030.078	-2.6
1030.431	1.2
1030.784	-5
1031.137	-0.5
1031.49	-7.2
1031.843	-2.9
1032.195	1.8
1032.548	2.6
1032.901	2.2
1033.253	-7.7
1033.606	-7.8
1033.958	-8.8
1034.311	-3.1
1034.663	3.6
1035.016	0
1035.368	-6.1
1035.72	5.2
1036.072	-6.3
1036.424	2.4
1036.776	2.4
1037.128	-0.4
1037.48	-5.3
