Data from 0.2bar_Subt2__0__18-22-32-520.txt Node

Date: Thu Jan 06 18:22:32 CET 2022
User: fsatto
Spectrometer: OFX01956
Trigger mode: 0
Integration Time (sec): 1.000000E-2
Scans to average: 10
Nonlinearity correction enabled: false
Boxcar width: 0
Storing dark spectrum: false
XAxis mode: Wavelengths
Number of Pixels in Spectrum: 2136
>>>>>Begin Spectral Data<<<<<
158.236	-10.1
158.705	-16.3
159.174	-3.9
159.643	-12.2
160.112	-11.6
160.582	-8.3
161.051	-14.9
161.52	-3.2
161.988	-6.5
162.457	-8.4
162.926	-8.5
163.395	-8.8
163.864	0.7
164.332	-11.2
164.801	-6.5
165.269	-9.3
165.738	-8.9
166.206	-4.8
166.675	-9.9
167.143	-4.7
167.612	-5.1
168.08	-9.5
168.548	-13.7
169.016	1.5
169.484	-10.4
169.952	-7.1
170.42	-11.1
170.888	-8.4
171.356	-10.8
171.824	-6.8
172.292	-9.9
172.759	-15.9
173.227	-12.6
173.695	-14.1
174.162	-11.9
174.63	-5.2
175.097	-7.2
175.565	-9.6
176.032	-19.1
176.499	-7.8
176.967	-14.3
177.434	-7.3
177.901	-6
178.368	-22.2
178.835	-19.4
179.302	-6.6
179.769	-11.5
180.236	-9.1
180.703	-10.3
181.17	-10.6
181.637	-12.2
182.103	-5
182.57	-9
183.036	-14.2
183.503	-14.7
183.97	-15
184.436	-7.3
184.902	-8.6
185.369	-14.5
185.835	1.6
186.301	-9.7
186.767	-7
187.234	-1.6
187.7	-15.9
188.166	-12.9
188.632	-14.5
189.098	-8.3
189.563	-11.2
190.029	-7.5
190.495	-17.8
190.961	-10.1
191.426	-17
191.892	-8.6
192.358	-11.2
192.823	-13.5
193.289	-10.5
193.754	-6
194.219	-10.2
194.685	-16.2
195.15	-4.2
195.615	-7.3
196.08	-3.8
196.545	-8.7
197.01	-2.7
197.475	-9
197.94	-8.9
198.405	-8.1
198.87	-10.4
199.335	-4.6
199.8	-9.8
200.264	22.8
200.729	25.1
201.193	18
201.658	30.7
202.122	30.8
202.587	32.6
203.051	31.2
203.516	31.8
203.98	27.7
204.444	33.7
204.908	41.1
205.372	42.2
205.836	47
206.3	53.3
206.764	47.8
207.228	56.8
207.692	48.8
208.156	70.4
208.62	65.9
209.083	69
209.547	74.9
210.011	80
210.474	92.7
210.938	100.8
211.401	112.8
211.864	142.1
212.328	146.1
212.791	149.5
213.254	184.1
213.717	209.9
214.181	222.2
214.644	284.2
215.107	324
215.57	377.6
216.033	446.7
216.495	569.8
216.958	679.3
217.421	797.4
217.884	921.1
218.346	1021.1
218.809	1155
219.272	1285.2
219.734	1367.9
220.196	1483.8
220.659	1593.8
221.121	1687.5
221.584	1798.3
222.046	1992.1
222.508	2094.6
222.97	2247.2
223.432	2380.8
223.894	2567.2
224.356	2804
224.818	3083.2
225.28	3373.2
225.742	3719.5
226.204	4419.1
226.665	4956.4
227.127	5169
227.589	5481.5
228.05	5821.5
228.512	6166.1
228.973	6493.5
229.435	6378.7
229.896	6288.3
230.357	6658.2
230.818	7366
231.28	7874.1
231.741	8400.8
232.202	8454.7
232.663	8313.9
233.124	8527.1
233.585	9317
234.046	10177.7
234.507	10564.7
234.967	10201.8
235.428	9893.2
235.889	9881.9
236.349	10204.1
236.81	11247.4
237.271	11968.7
237.731	11855.1
238.191	11288.3
238.652	11091.5
239.112	11669.7
239.572	12773.8
240.033	13673.6
240.493	13004.6
240.953	11821.5
241.413	11092.3
241.873	11505.8
242.333	12280.6
242.793	12358.5
243.253	11839.1
243.712	11470.3
244.172	11277.2
244.632	11262.6
245.092	11795.6
245.551	12148.1
246.011	12253.5
246.47	12036.5
246.93	12390.5
247.389	13623
247.848	14983.5
248.308	15455.6
248.767	15389.7
249.226	15288.3
249.685	15571.4
250.144	15960.6
250.603	17001.7
251.062	17589.1
251.521	17140.5
251.98	16096.8
252.439	15510.7
252.897	15550.3
253.356	16233.8
253.815	16950.6
254.273	16748.4
254.732	15984.7
255.19	13913.8
255.649	12501.9
256.107	12508.2
256.566	13037.5
257.024	13686.9
257.482	13367.2
257.94	12321.4
258.398	12404.9
258.856	12734.6
259.315	12725.3
259.772	12639.1
260.23	12132.4
260.688	11281
261.146	10451.1
261.604	9736.5
262.062	9790.4
262.519	10229.1
262.977	10519.9
263.434	9772.3
263.892	8932.7
264.349	8634.4
264.807	8584.6
265.264	8285.6
265.721	8008.1
266.179	7833.1
266.636	7213.2
267.093	6555
267.55	6332.7
268.007	6545.5
268.464	6700.4
268.921	6632
269.378	6196.6
269.835	5989.7
270.291	5947.4
270.748	5927.6
271.205	5976.9
271.661	5918.9
272.118	5663.5
272.574	5528.6
273.031	5548.3
273.487	5429
273.944	5260.7
274.4	5260
274.856	5232.1
275.312	4929.3
275.768	4686
276.225	4564.9
276.681	4497.5
277.137	4393.9
277.593	4145.9
278.048	3925.3
278.504	3789.2
278.96	3639.9
279.416	3370.3
279.871	3115.7
280.327	2981
280.783	2925.6
281.238	2811.2
281.694	2679.9
282.149	2545.7
282.604	2474.7
283.06	2382.1
283.515	2291.4
283.97	2165.4
284.425	2093.1
284.88	2046.2
285.335	1974.7
285.79	1832.6
286.245	1662.6
286.7	1697.7
287.155	1706.5
287.61	1643.3
288.064	1570.7
288.519	1607.4
288.974	1530.7
289.428	1465.6
289.883	1421.8
290.337	1439
290.792	1388.8
291.246	1382.3
291.7	1355.5
292.155	1294
292.609	1211
293.063	1151.8
293.517	1081.5
293.971	1038.1
294.425	984.8
294.879	929.6
295.333	866.1
295.787	784.5
296.241	750.8
296.694	706.6
297.148	686.3
297.602	644.4
298.055	598.4
298.509	561.2
298.962	493.1
299.416	472.8
299.869	446.2
300.322	424.1
300.775	395.1
301.229	358.9
301.682	335.1
302.135	289.6
302.588	253.3
303.041	253.8
303.494	223.7
303.947	207.1
304.4	196.5
304.852	173.9
305.305	175.5
305.758	144.9
306.21	140.6
306.663	129.4
307.115	112
307.568	116
308.02	113.5
308.473	106.5
308.925	96.4
309.377	86.6
309.829	84.6
310.282	69.3
310.734	78.1
311.186	71.1
311.638	58.9
312.09	58.5
312.542	48.6
312.993	49.2
313.445	40.2
313.897	47.5
314.349	36
314.8	31.2
315.252	29.7
315.703	38.4
316.155	33.6
316.606	33.3
317.058	32.6
317.509	19.9
317.96	27.1
318.411	21.7
318.863	17.6
319.314	24.4
319.765	10.3
320.216	14
320.667	12.4
321.117	13.8
321.568	8
322.019	17.9
322.47	18
322.921	7.5
323.371	8.6
323.822	3.7
324.272	2.4
324.723	-1.2
325.173	-7
325.623	-6.6
326.074	-9.8
326.524	6.5
326.974	-1.2
327.424	5.2
327.874	7.3
328.325	-5.1
328.775	-3.2
329.224	4.5
329.674	-5.4
330.124	-5.9
330.574	1.7
331.024	0.4
331.473	0.4
331.923	1.3
332.373	10.4
332.822	-2.7
333.272	-4.4
333.721	-4.3
334.17	-5.5
334.62	-3.6
335.069	-3.5
335.518	-5.9
335.967	4.2
336.416	3.5
336.865	5.4
337.314	-0.4
337.763	-6.6
338.212	9.3
338.661	-3.1
339.11	2.4
339.558	-3.4
340.007	-4.1
340.456	-6.1
340.904	-2.5
341.353	0.5
341.801	-6.9
342.25	-12.3
342.698	-10.6
343.146	-3.3
343.595	3.6
344.043	-5.3
344.491	-0.4
344.939	-6.1
345.387	-1.3
345.835	-4.1
346.283	1.4
346.731	1.6
347.179	-6
347.626	-8.1
348.074	-8.5
348.522	-7.3
348.969	2.2
349.417	0.4
349.865	-8.5
350.312	-2.5
350.759	-13.7
351.207	-11.2
351.654	-17
352.101	-7.6
352.548	-4.2
352.996	-12.9
353.443	-3.7
353.89	-5.8
354.337	-17.6
354.784	-8.3
355.231	-9.5
355.677	-6.1
356.124	-12.5
356.571	-4.9
357.018	-6.8
357.464	-14.1
357.911	-0.1
358.357	8.1
358.804	-8
359.25	1.4
359.696	-13.3
360.143	-2.1
360.589	-0.8
361.035	2.4
361.481	-1.5
361.927	1.2
362.373	-6.3
362.819	-0.7
363.265	0.1
363.711	-9.1
364.157	1.5
364.603	-5.1
365.048	-4.5
365.494	-4.7
365.94	-15.1
366.385	-8.2
366.831	-3.7
367.276	-8.9
367.722	-11.1
368.167	-9.1
368.612	0.2
369.057	-5.3
369.503	2.8
369.948	-5.8
370.393	2.9
370.838	-5.9
371.283	-1
371.728	-15.7
372.173	1.6
372.617	3.6
373.062	-7.5
373.507	-5.2
373.951	-9.4
374.396	1
374.841	-12.1
375.285	-7.8
375.729	-11.2
376.174	-8
376.618	-7.4
377.062	-6.2
377.507	-10.4
377.951	-7.1
378.395	-17.5
378.839	-1.7
379.283	-7.2
379.727	0.6
380.171	1.5
380.615	0.6
381.059	-2.7
381.502	-5.4
381.946	-9.2
382.39	-5.7
382.833	-1.1
383.277	-9.8
383.72	-8.2
384.164	-17
384.607	-9
385.05	1.7
385.494	0.3
385.937	-8
386.38	-8.5
386.823	-7.3
387.266	-9
387.709	-5.2
388.152	-10.3
388.595	-11.6
389.038	-7.3
389.481	-0.1
389.923	-12
390.366	-4.9
390.809	-13.8
391.251	-4.6
391.694	-2.1
392.136	8.5
392.579	-5.6
393.021	-1.8
393.463	-6.4
393.906	-9
394.348	-6.9
394.79	1.9
395.232	-0.2
395.674	-14.9
396.116	-4.6
396.558	-5.1
397	-0.3
397.442	-6.5
397.884	-11.3
398.325	-3.9
398.767	-2.1
399.209	-6.8
399.65	-2.8
400.092	-4.8
400.533	-10
400.974	-17.2
401.416	-14.5
401.857	-5.6
402.298	-1.7
402.74	-12.2
403.181	-7
403.622	-6.5
404.063	5.7
404.504	-1.6
404.945	-3.8
405.386	1.4
405.826	-9.9
406.267	-9
406.708	-8.2
407.149	-8.8
407.589	-9.6
408.03	-7.9
408.47	-6.7
408.911	-3.8
409.351	-6.7
409.791	-6.9
410.232	-12.9
410.672	-10.2
411.112	-9.3
411.552	-8.6
411.992	-3.3
412.432	-8.5
412.872	-7.3
413.312	0.3
413.752	-14.9
414.192	-5.4
414.632	-10.4
415.071	-9.2
415.511	3.4
415.951	-8.3
416.39	3
416.83	-11.5
417.269	-4.7
417.708	1.5
418.148	-14.9
418.587	-12.6
419.026	-14.7
419.465	-8.3
419.904	1.8
420.344	-4.8
420.783	-7.5
421.221	1.8
421.66	-11.1
422.099	-12.4
422.538	1.7
422.977	-6.2
423.415	-13.1
423.854	-4.4
424.293	-8.1
424.731	-6.2
425.17	-12.3
425.608	-3.1
426.046	-5.2
426.485	-7.6
426.923	-11.7
427.361	-10.4
427.799	-0.8
428.237	-9.5
428.675	-4.6
429.113	-10.3
429.551	-17.8
429.989	-11.1
430.427	-11.1
430.865	-11
431.303	-13.7
431.74	-4.5
432.178	-12.9
432.615	-14.7
433.053	-16.9
433.49	-5.7
433.928	-0.6
434.365	2.4
434.802	-7.2
435.24	1
435.677	-4.5
436.114	-6.6
436.551	-5.3
436.988	1.5
437.425	-1.8
437.862	-11
438.299	-10.5
438.736	-3.4
439.172	-7.2
439.609	-7.9
440.046	-5.1
440.482	-2.2
440.919	-5.3
441.355	-7
441.792	1
442.228	-9
442.665	-6.2
443.101	-6.1
443.537	-9
443.973	1.3
444.409	6.2
444.845	1.4
445.281	-3.8
445.717	-11.9
446.153	-2.7
446.589	-6.8
447.025	-4.5
447.461	-1.7
447.896	-10.3
448.332	-5.8
448.768	-3.4
449.203	-8.3
449.639	-14.9
450.074	-9.4
450.509	3.1
450.945	-6.7
451.38	-4.5
451.815	-10.7
452.25	3.4
452.685	-10.7
453.12	-10.2
453.555	-8.9
453.99	-8.1
454.425	-6.5
454.86	-13.6
455.295	-11.9
455.73	-12.1
456.164	-8.3
456.599	-4.1
457.033	6.4
457.468	-8.1
457.902	-9.7
458.337	5.5
458.771	-7.2
459.205	-6.4
459.64	3.1
460.074	-5.8
460.508	-6.7
460.942	1.7
461.376	-7.7
461.81	-11.8
462.244	-6.1
462.678	-8.5
463.112	1.8
463.545	-12.8
463.979	-1.5
464.413	1.2
464.846	-2.6
465.28	-5.4
465.713	-7.9
466.147	-4.6
466.58	-4.7
467.014	-2.6
467.447	0.8
467.88	-0.6
468.313	4.6
468.746	-6.4
469.179	-9.8
469.612	-4.9
470.045	-7.8
470.478	-11.1
470.911	-4.8
471.344	2.5
471.777	-2.3
472.209	-2.5
472.642	5.5
473.074	-6.8
473.507	-2.2
473.939	-8.3
474.372	2.5
474.804	0.1
475.236	3.8
475.669	6.4
476.101	8.8
476.533	-1.3
476.965	8.7
477.397	7
477.829	6.6
478.261	-2.3
478.693	4.9
479.125	-3.8
479.557	4.3
479.988	2.7
480.42	2.5
480.852	-2.4
481.283	6.5
481.715	1.3
482.146	9
482.577	1.1
483.009	-0.9
483.44	3.8
483.871	6.6
484.302	1.4
484.734	9.8
485.165	0.5
485.596	-1.3
486.027	-1.7
486.457	6.8
486.888	-0.4
487.319	-0.8
487.75	2.7
488.181	11
488.611	-2.7
489.042	-6.2
489.472	-7.5
489.903	-0.1
490.333	3.1
490.764	1.6
491.194	-4
491.624	-2.5
492.054	8.1
492.484	-0.5
492.915	3.7
493.345	6.6
493.775	-10.9
494.204	3.7
494.634	1.4
495.064	0.7
495.494	-2.5
495.924	-7.3
496.353	-9.8
496.783	-5.3
497.212	-0.3
497.642	-2.6
498.071	-0.7
498.501	-11.5
498.93	-4.6
499.359	-5.1
499.789	-2.7
500.218	-1.8
500.647	-1.4
501.076	-4.4
501.505	-3.1
501.934	-1.4
502.363	0
502.792	-8.1
503.221	-11.6
503.649	-7.1
504.078	-0.5
504.507	1.3
504.935	-10.4
505.364	-3.3
505.792	0.2
506.221	-8
506.649	-4.9
507.077	-4.5
507.506	-6.8
507.934	-11.1
508.362	-1
508.79	3.2
509.218	-9.4
509.646	-4.8
510.074	0.7
510.502	-11.9
510.93	-7.3
511.357	-1
511.785	-13.7
512.213	-5.5
512.64	-4.7
513.068	2.5
513.496	-3.1
513.923	-8.2
514.35	-6.4
514.778	-10.3
515.205	-11.5
515.632	-2
516.059	0.5
516.486	1.1
516.914	-8.6
517.341	-5.6
517.768	-9.1
518.194	-14.7
518.621	-2.9
519.048	-11.3
519.475	-8.4
519.902	-7
520.328	-6.3
520.755	-7.5
521.181	-12.5
521.608	-7
522.034	-11.2
522.461	0
522.887	-12.2
523.313	-0.8
523.739	-6.3
524.165	2.6
524.592	-10.2
525.018	-8.2
525.444	-0.8
525.869	4.2
526.295	-1.1
526.721	-7.2
527.147	-2.1
527.573	5.7
527.998	-0.9
528.424	-7.1
528.849	-10.9
529.275	5.9
529.7	-1
530.126	-1
530.551	-2.1
530.976	-0.1
531.402	-3.3
531.827	-5
532.252	0.8
532.677	0.5
533.102	8
533.527	-0.5
533.952	1.7
534.377	-5.3
534.801	-1.8
535.226	4.7
535.651	-3.7
536.076	-11.8
536.5	-10.3
536.925	-4.5
537.349	3.4
537.773	-19.5
538.198	-1.5
538.622	-1.7
539.046	-4.8
539.471	-6.8
539.895	3.8
540.319	-11.6
540.743	-0.5
541.167	-6
541.591	-8.2
542.015	-3.9
542.438	-8.8
542.862	-2.6
543.286	-2.1
543.71	5.5
544.133	-2.9
544.557	-0.6
544.98	-4.9
545.404	1.9
545.827	-10.9
546.25	0.9
546.674	1.2
547.097	2.8
547.52	1.4
547.943	-9.4
548.366	-13.7
548.789	-3.3
549.212	-5.7
549.635	-5.2
550.058	-1.8
550.481	3.8
550.903	-6.4
551.326	7
551.749	-0.9
552.171	0.4
552.594	-3.3
553.016	0.3
553.438	0.7
553.861	-6.5
554.283	-3.4
554.705	-7.2
555.128	-1
555.55	-0.7
555.972	-3.4
556.394	-4
556.816	1.5
557.238	-1.6
557.659	-1.7
558.081	-9.7
558.503	-3
558.925	-12.5
559.346	-7.3
559.768	-1.7
560.189	-5.3
560.611	-0.7
561.032	-8.6
561.454	-9.1
561.875	2.7
562.296	2.5
562.718	1.1
563.139	1.1
563.56	2.6
563.981	-2.3
564.402	-5.6
564.823	5.6
565.244	-1.8
565.664	-1.7
566.085	9.8
566.506	-11.2
566.927	0.1
567.347	-11.2
567.768	-12
568.188	-5.3
568.609	-3.1
569.029	1.2
569.449	-6.4
569.87	-3.4
570.29	-1.2
570.71	-8.3
571.13	-3
571.55	-16.1
571.97	0.2
572.39	0.4
572.81	-8.9
573.23	-4.9
573.65	-5.4
574.069	-11.4
574.489	-4.5
574.909	-5.6
575.328	-6.9
575.748	-5
576.167	-11.8
576.587	-7.1
577.006	-0.3
577.425	-9.2
577.844	-4.8
578.264	-0.4
578.683	-12.6
579.102	-11.6
579.521	-4.4
579.94	-2
580.359	1.9
580.778	-1.9
581.196	-10.3
581.615	-3.2
582.034	-13.3
582.452	-16.5
582.871	-12.2
583.29	-1.8
583.708	-12.1
584.126	-0.4
584.545	-9.5
584.963	-13.5
585.381	-2
585.8	-11.3
586.218	-2.1
586.636	-3.6
587.054	-11.7
587.472	-16.4
587.89	-7.8
588.308	-2.9
588.725	-12.8
589.143	1.1
589.561	-4.3
589.979	-13.8
590.396	-4.8
590.814	2
591.231	-1.4
591.649	-12.2
592.066	-14.2
592.483	-5.3
592.901	1.7
593.318	-3.9
593.735	-9.2
594.152	1.8
594.569	-4.3
594.986	-16.5
595.403	-4.6
595.82	-1.5
596.237	0.8
596.654	-0.7
597.07	-8.3
597.487	-0.7
597.904	-9.4
598.32	-14.3
598.737	-7.3
599.153	-3.4
599.57	5
599.986	-4.9
600.402	0.5
600.818	-5.2
601.235	-5.5
601.651	-8.3
602.067	-11.4
602.483	1.4
602.899	-3.7
603.315	-2.4
603.73	2.1
604.146	-8.4
604.562	-5.2
604.978	-7.9
605.393	-2.2
605.809	-12.3
606.224	-0.2
606.64	-4.5
607.055	-4.8
607.471	-19.2
607.886	-0.1
608.301	-3.7
608.716	-11.9
609.131	-0.5
609.547	-9.1
609.962	1.7
610.377	-1.3
610.791	-10.3
611.206	-21.3
611.621	-21.7
612.036	-4.6
612.451	0.1
612.865	-5
613.28	-0.8
613.694	-5.4
614.109	-9.8
614.523	-0.6
614.938	-2.1
615.352	2.1
615.766	-3.6
616.18	9.1
616.595	4.1
617.009	-3.4
617.423	-8.4
617.837	-4.3
618.251	-11.7
618.664	-8.4
619.078	-4.5
619.492	-4.6
619.906	-9.7
620.319	6.5
620.733	5.8
621.146	1.9
621.56	6.7
621.973	16.9
622.387	11.5
622.8	7.6
623.213	5.8
623.627	6.4
624.04	14.2
624.453	7.7
624.866	16.9
625.279	16.2
625.692	8.1
626.105	5
626.518	6.8
626.93	14.9
627.343	17.6
627.756	14.9
628.168	17.5
628.581	19.7
628.993	12.5
629.406	18.3
629.818	18
630.231	24
630.643	18
631.055	30.5
631.467	22.2
631.879	22.2
632.291	27.8
632.703	37.7
633.115	30.3
633.527	47.8
633.939	55.4
634.351	59.7
634.763	67.8
635.174	51.3
635.586	70.4
635.997	83.1
636.409	60.5
636.82	75.9
637.232	71.6
637.643	78.7
638.054	77.2
638.466	94
638.877	92.5
639.288	87.6
639.699	98.6
640.11	87.3
640.521	101.5
640.932	106.3
641.343	81.9
641.753	98.2
642.164	103.9
642.575	110.9
642.986	110.5
643.396	106.5
643.807	110.1
644.217	103.8
644.627	113.4
645.038	113
645.448	115.6
645.858	103.9
646.269	99.7
646.679	100.7
647.089	100.9
647.499	105.3
647.909	97.2
648.319	93.7
648.728	86.6
649.138	87.8
649.548	100
649.958	87.6
650.367	84.2
650.777	81.4
651.186	78.4
651.596	63.4
652.005	63.6
652.415	67.6
652.824	73.9
653.233	68.3
653.642	77.7
654.052	69.1
654.461	78.8
654.87	71
655.279	72.4
655.688	77.7
656.096	69.3
656.505	74.1
656.914	70
657.323	63.6
657.731	59.7
658.14	63.9
658.548	60.6
658.957	65.5
659.365	54.9
659.774	62.3
660.182	45.9
660.59	67.4
660.998	67.4
661.407	55.5
661.815	62.3
662.223	52.9
662.631	54.9
663.039	54.5
663.446	47
663.854	40.9
664.262	40.5
664.67	45.2
665.077	42.4
665.485	41.3
665.892	49
666.3	33.5
666.707	48.3
667.115	38
667.522	24
667.929	34.2
668.337	24
668.744	21.1
669.151	21.2
669.558	30.3
669.965	31.5
670.372	21.6
670.779	8.2
671.185	25.6
671.592	19.8
671.999	13.6
672.405	17.6
672.812	3.4
673.219	14
673.625	6.9
674.032	1.8
674.438	-2.9
674.844	4.5
675.25	3.8
675.657	-9
676.063	-4.6
676.469	-2.1
676.875	5.2
677.281	3.8
677.687	5.2
678.093	1.4
678.499	3.5
678.904	-13
679.31	-4.6
679.716	13.1
680.121	-3.8
680.527	-0.6
680.932	1
681.338	-5.4
681.743	-8.5
682.148	-13.9
682.554	-3.3
682.959	-11.9
683.364	0
683.769	12.5
684.174	-5.9
684.579	-11.9
684.984	-6
685.389	-12
685.794	-9.6
686.199	-8.5
686.603	-1.6
687.008	-15
687.413	-4.2
687.817	0.7
688.222	-8.2
688.626	-16.3
689.03	-10
689.435	-5.5
689.839	-4.3
690.243	-8.2
690.647	1.7
691.051	-2.8
691.456	0.6
691.859	-12.7
692.263	5
692.667	1.3
693.071	-5.9
693.475	-3
693.879	6.4
694.282	-11.9
694.686	-17.2
695.089	2
695.493	-3.9
695.896	-4.6
696.3	-5.3
696.703	-5
697.106	-3.5
697.509	-3.8
697.913	-7.4
698.316	-5.7
698.719	3.5
699.122	-2.9
699.525	-2.2
699.928	-3.2
700.33	0.3
700.733	-2.3
701.136	0.1
701.539	-7.9
701.941	-8.8
702.344	-10.1
702.746	-8
703.149	-4.1
703.551	-11.5
703.953	-11.9
704.356	-4.8
704.758	-6.6
705.16	-2.5
705.562	-4.4
705.964	-3.5
706.366	-7.7
706.768	-8
707.17	-8.1
707.572	0.9
707.973	-9.9
708.375	-7.2
708.777	-14.5
709.178	-3.8
709.58	-13.6
709.981	-11.3
710.383	-4.6
710.784	-13.2
711.186	-7
711.587	-5.6
711.988	-3.5
712.389	-0.1
712.79	-12.7
713.191	-8
713.592	-3.6
713.993	-13.1
714.394	-5.9
714.795	-9.8
715.196	-1.4
715.596	-13.6
715.997	-6.4
716.398	-7.1
716.798	-7.7
717.199	-3.3
717.599	2.6
718	-10.5
718.4	2.3
718.8	1.1
719.2	-11.1
719.6	-4.5
720.001	-5.7
720.401	-2.8
720.801	-17.5
721.201	-5.8
721.6	-11.4
722	2.5
722.4	-7.6
722.8	-1.6
723.199	-7.8
723.599	-12.5
723.998	-6.5
724.398	-6.5
724.797	-12.4
725.197	-8.9
725.596	-5
725.995	-7.2
726.394	-15.3
726.794	-2.9
727.193	-5.6
727.592	-3.9
727.991	-6.3
728.39	-4.3
728.789	-12.9
729.187	-5.2
729.586	-0.4
729.985	-9
730.383	-3.2
730.782	4.2
731.181	-8.5
731.579	-6.4
731.977	4.9
732.376	-5.1
732.774	-2.3
733.172	-1.8
733.571	-6.4
733.969	-2.5
734.367	-1.5
734.765	0.5
735.163	1.2
735.561	4.6
735.959	15.4
736.356	6.3
736.754	10.8
737.152	-1.7
737.55	-5.4
737.947	-1.1
738.345	10.6
738.742	3.6
739.14	4.5
739.537	11.2
739.934	15.1
740.331	10.1
740.729	12.3
741.126	19.3
741.523	3
741.92	11.2
742.317	19.6
742.714	11.4
743.111	19.8
743.507	17.5
743.904	11.7
744.301	17.1
744.697	13.6
745.094	16.3
745.491	10.2
745.887	28.5
746.283	25.1
746.68	19.9
747.076	20.3
747.472	23.4
747.869	14.9
748.265	17.5
748.661	17.1
749.057	10.3
749.453	19.3
749.849	25.3
750.244	21.8
750.64	22.7
751.036	18.2
751.432	20.9
751.827	21
752.223	28.9
752.618	32.4
753.014	24.4
753.409	14.9
753.805	12.8
754.2	11
754.595	20.1
754.99	21.4
755.385	25.1
755.78	25.1
756.175	32.1
756.57	34.6
756.965	21.3
757.36	15.5
757.755	35
758.15	24.8
758.544	28.6
758.939	31.4
759.334	36.9
759.728	27
760.122	32.2
760.517	34
760.911	34.3
761.306	32.5
761.7	35
762.094	31.3
762.488	34.1
762.882	26
763.276	35.1
763.67	29.6
764.064	37.3
764.458	34.6
764.852	30.2
765.245	39.3
765.639	46.2
766.033	44.3
766.426	38.5
766.82	50.4
767.213	57.3
767.606	62.3
768	43.3
768.393	41.6
768.786	49.9
769.179	52.4
769.572	53.4
769.966	46.6
770.358	51.8
770.751	57.5
771.144	59.9
771.537	55.8
771.93	56.3
772.323	58.3
772.715	65.6
773.108	52.4
773.5	55
773.893	52.6
774.285	51.3
774.678	44.3
775.07	46.6
775.462	40.6
775.854	42.1
776.247	40.7
776.639	44.4
777.031	36.8
777.423	45.3
777.815	40.3
778.207	45.9
778.598	49.9
778.99	44.2
779.382	58
779.773	68.2
780.165	62
780.557	67.5
780.948	68
781.339	64
781.731	73.8
782.122	78.8
782.513	69.1
782.905	72.6
783.296	72.4
783.687	74.3
784.078	57.4
784.469	63.5
784.86	66.6
785.251	73
785.641	67.9
786.032	58.3
786.423	52.4
786.813	73.3
787.204	67.5
787.594	56.5
787.985	51.2
788.375	58.6
788.766	56.8
789.156	35.9
789.546	36.6
789.936	37.7
790.326	35.5
790.717	28.4
791.107	35.3
791.497	28.5
791.886	27.2
792.276	30.5
792.666	22.1
793.056	21.1
793.445	20
793.835	17.9
794.225	18.4
794.614	18
795.004	20.7
795.393	17
795.782	13.9
796.172	15.4
796.561	9.7
796.95	17.5
797.339	17
797.728	8.8
798.117	13.4
798.506	12.1
798.895	15.6
799.284	8.4
799.673	18.7
800.061	21.5
800.45	9.6
800.839	8.2
801.227	14.7
801.616	2.7
802.004	3.1
802.392	3.5
802.781	12.4
803.169	2.9
803.557	-4.6
803.945	2.1
804.333	5.6
804.721	4.7
805.109	8
805.497	2
805.885	-3.9
806.273	-1.3
806.661	1.4
807.048	-1.2
807.436	5
807.824	-3.9
808.211	-9.7
808.599	-2.6
808.986	1.5
809.373	9
809.761	3
810.148	-3.8
810.535	0.3
810.922	-6.6
811.309	-0.5
811.696	-6.1
812.083	-4.8
812.47	-9
812.857	-2.3
813.244	-8.1
813.631	2.2
814.017	-3.8
814.404	1.3
814.791	-11
815.177	4.7
815.564	-1.2
815.95	-1
816.336	4.1
816.723	-1.1
817.109	-8.5
817.495	-4.2
817.881	5.5
818.267	-10.2
818.653	-15.9
819.039	-10
819.425	-10.6
819.811	2.5
820.197	-10.2
820.582	-0.6
820.968	-5.7
821.354	-12.9
821.739	-7.4
822.125	-7.1
822.51	2.3
822.895	-4.1
823.281	-4.8
823.666	-2.6
824.051	-6
824.436	0
824.822	-5.9
825.207	-8.5
825.592	-2.3
825.976	-21.7
826.361	-13.1
826.746	-7.8
827.131	-0.2
827.516	-7.1
827.9	-0.4
828.285	-18.5
828.669	-10.3
829.054	-2.4
829.438	-10.7
829.823	-12.6
830.207	0.1
830.591	-19.2
830.975	-5.6
831.36	-5.2
831.744	-17.1
832.128	-14.4
832.512	-1.9
832.895	-7
833.279	-7.3
833.663	-3.6
834.047	7.4
834.431	-6.3
834.814	-8.5
835.198	-10.5
835.581	-8.9
835.965	-11.6
836.348	-14.6
836.731	-3.7
837.115	-12.2
837.498	-14
837.881	-3.8
838.264	-4
838.647	-9.3
839.03	1.4
839.413	-13.5
839.796	-10.7
840.179	-12.8
840.562	-5.4
840.944	-13.7
841.327	-7.4
841.71	-10.8
842.092	-5.3
842.475	2.4
842.857	-19.4
843.24	-5.8
843.622	-15.4
844.004	-8.8
844.386	-4.6
844.769	-4.5
845.151	-1.4
845.533	-1.8
845.915	0
846.297	-8.9
846.678	-4.2
847.06	-7.8
847.442	-9.5
847.824	-12.3
848.205	-6.3
848.587	-4.2
848.968	-5.2
849.35	2.3
849.731	-2.6
850.113	-12.7
850.494	-14.2
850.875	-18.6
851.256	-5
851.638	-13.8
852.019	-15.9
852.4	-0.8
852.781	-12.2
853.161	-5
853.542	-12.1
853.923	-2.9
854.304	-6.3
854.685	-1.9
855.065	-0.2
855.446	-10
855.826	-6.1
856.207	-5.4
856.587	1.5
856.967	-5.9
857.348	-13.1
857.728	-4.7
858.108	-12.9
858.488	-0.5
858.868	-6.7
859.248	-14.9
859.628	-16.2
860.008	-11.5
860.388	-0.9
860.768	6
861.147	-1.1
861.527	-6.9
861.907	-6.6
862.286	-10.4
862.666	-12
863.045	-9.4
863.424	-13.2
863.804	-8
864.183	-4.9
864.562	-8.9
864.941	-10
865.32	-6.8
865.699	-3.5
866.078	-1.1
866.457	-12.6
866.836	-11.5
867.215	-6.6
867.594	-2.8
867.972	-9.3
868.351	-9.3
868.729	-8.4
869.108	-0.4
869.486	-13.7
869.865	-14.1
870.243	-5.2
870.621	-14.1
871	-7.9
871.378	-12.9
871.756	-5.6
872.134	-11.6
872.512	-10
872.89	-12.4
873.268	-14.5
873.646	-8
874.023	-3
874.401	-2.9
874.779	-4.3
875.156	-3.3
875.534	1.8
875.911	-6.2
876.289	-12
876.666	-18.4
877.043	-4.3
877.421	-16.5
877.798	-7.3
878.175	-16.3
878.552	-3.5
878.929	-12.2
879.306	-8.9
879.683	-3.3
880.06	-7.6
880.437	-13.4
880.813	-5.8
881.19	-4.9
881.567	-3.5
881.943	-9.3
882.32	-6.9
882.696	-2.6
883.073	-8.1
883.449	-8.9
883.825	-9.3
884.202	-7.2
884.578	-4.5
884.954	0.2
885.33	-8.9
885.706	-8.2
886.082	-4.3
886.458	-3.1
886.834	-7.7
887.209	-3.9
887.585	-8.9
887.961	-5.1
888.336	-5.8
888.712	-2.7
889.087	-6.1
889.463	-16.5
889.838	-10.2
890.213	-5.7
890.589	-6.1
890.964	-10.9
891.339	-3.2
891.714	-6.9
892.089	-1.5
892.464	-14.8
892.839	-9
893.214	-15.6
893.589	-10.9
893.963	-4
894.338	-8.1
894.713	-6.2
895.087	5.5
895.462	-2.1
895.836	-1.3
896.211	-7
896.585	-9.4
896.959	-8.8
897.334	-8.2
897.708	-2.3
898.082	9.3
898.456	-10.7
898.83	-11.7
899.204	6.7
899.578	2.9
899.952	-7.7
900.325	3.2
900.699	2
901.073	-2.2
901.446	3.5
901.82	3
902.193	-7.2
902.567	0.4
902.94	-0.6
903.313	-8.5
903.687	-8
904.06	-1.6
904.433	-1.3
904.806	-4.2
905.179	-11.1
905.552	-2.4
905.925	2.6
906.298	-3.6
906.671	-8.5
907.043	0.1
907.416	-6.4
907.789	0.3
908.161	-10.3
908.534	-9.1
908.906	-13.5
909.279	-9.5
909.651	-2.2
910.023	-10.4
910.396	-2.6
910.768	-4.8
911.14	-4.6
911.512	-8.8
911.884	-6
912.256	-18.8
912.628	0.1
912.999	-1.9
913.371	-4.4
913.743	-12.8
914.115	3.6
914.486	-8.6
914.858	-13
915.229	-8.9
915.601	0.2
915.972	6.5
916.343	-4.2
916.715	-3.2
917.086	-14.5
917.457	-8.5
917.828	-4.8
918.199	-6.5
918.57	-5.7
918.941	-5.9
919.312	5.6
919.682	-5.1
920.053	-8.2
920.424	-0.3
920.794	-1.8
921.165	-3.5
921.536	-5.5
921.906	-0.5
922.276	3.9
922.647	-16.8
923.017	-7.8
923.387	0.8
923.757	-3.6
924.127	5.3
924.497	4.4
924.867	0.9
925.237	2.9
925.607	-1.8
925.977	2.5
926.347	-4.8
926.716	9
927.086	3.1
927.456	0.1
927.825	-2
928.195	-0.3
928.564	7.9
928.933	6
929.303	5.2
929.672	-5.9
930.041	-2.3
930.41	4.4
930.779	0.5
931.148	5.6
931.517	-3.8
931.886	-5.3
932.255	10.8
932.624	-2.3
932.993	-0.7
933.361	5.4
933.73	0
934.098	0.7
934.467	10.5
934.835	1.7
935.204	-13.7
935.572	-12.4
935.94	5.1
936.308	5.7
936.677	-4
937.045	3.6
937.413	10.3
937.781	1
938.149	4.3
938.516	0
938.884	-1.3
939.252	6.9
939.62	10.6
939.987	0.8
940.355	2.6
940.722	1.6
941.09	6
941.457	6.8
941.825	-2.2
942.192	-7.2
942.559	-2.7
942.926	-1.6
943.293	-7.5
943.66	4.4
944.027	-0.3
944.394	8.1
944.761	-10.3
945.128	-8.9
945.495	7.3
945.861	2.7
946.228	-9.2
946.595	-5.6
946.961	0.6
947.328	6
947.694	-0.2
948.06	-1.7
948.427	-0.1
948.793	-0.2
949.159	3.2
949.525	-8.5
949.891	-2.6
950.257	-2.4
950.623	1.2
950.989	8.4
951.355	-2.2
951.721	8.8
952.087	-4.2
952.452	0
952.818	-4.4
953.183	-3.5
953.549	-0.5
953.914	-6.8
954.28	-1.7
954.645	-10.2
955.01	4.5
955.375	-1.2
955.741	1.9
956.106	2
956.471	-17.5
956.836	-9.4
957.201	-1.6
957.566	-0.1
957.93	0.8
958.295	-4.6
958.66	-1.2
959.024	1.6
959.389	-9.4
959.753	3.1
960.118	6.4
960.482	-0.4
960.847	-1.4
961.211	-3.8
961.575	4.8
961.939	-11.4
962.303	-11.1
962.667	-1.7
963.031	-12.9
963.395	-0.2
963.759	2.5
964.123	3.3
964.487	-5.8
964.851	-2.6
965.214	-2.7
965.578	-12
965.941	-5.6
966.305	-15.2
966.668	-8.3
967.032	-7.8
967.395	-2.2
967.758	4.7
968.121	-2.8
968.484	1.1
968.847	-4.3
969.21	-9.5
969.573	-1.3
969.936	-14
970.299	-2.1
970.662	-7
971.025	-12.6
971.387	-6.9
971.75	-12.5
972.112	-5.5
972.475	2.6
972.837	0
973.2	-2.6
973.562	2.1
973.924	-5.3
974.286	2.4
974.649	-10.3
975.011	0.3
975.373	-17.1
975.735	-8.6
976.097	1.7
976.458	-0.3
976.82	-17.4
977.182	-8.2
977.544	-7.7
977.905	-7.1
978.267	-4.5
978.628	-8.4
978.99	-6.4
979.351	0.4
979.712	-9.4
980.074	-14.7
980.435	-5.7
980.796	-0.8
981.157	-10.7
981.518	-5.2
981.879	-16.3
982.24	-5.4
982.601	-10.8
982.962	-9.8
983.323	-8.9
983.683	-5
984.044	3.1
984.404	-37.9
984.765	-4.3
985.125	-5.6
985.486	-3.3
985.846	-5.6
986.206	-2.1
986.567	-5.5
986.927	-5.7
987.287	-10.6
987.647	-10.3
988.007	-0.8
988.367	-23.1
988.727	-4.3
989.087	-5.6
989.446	-4.6
989.806	-8.9
990.166	-8
990.525	-6.8
990.885	-5.5
991.244	-1.5
991.604	2.5
991.963	-2.1
992.322	-5.7
992.682	-12
993.041	-16.1
993.4	-3.1
993.759	-12.4
994.118	-20
994.477	-3.3
994.836	-12.4
995.195	-14.2
995.553	3.8
995.912	-2.9
996.271	-13.4
996.629	-7.6
996.988	-2
997.346	-4.1
997.705	-17.9
998.063	-0.6
998.422	-7.5
998.78	-8.2
999.138	-8.8
999.496	-1.4
999.854	-5.6
1000.212	-13.3
1000.57	-7.2
1000.928	-8.9
1001.286	3
1001.644	-14.5
1002.001	-7.5
1002.359	-4.7
1002.717	-2.1
1003.074	-10.6
1003.432	-7.1
1003.789	-5.2
1004.147	3.8
1004.504	-4.5
1004.861	-6.3
1005.218	-0.7
1005.576	-15.5
1005.933	-10.9
1006.29	-14.4
1006.647	-11.3
1007.004	1.8
1007.36	-10.5
1007.717	-6.1
1008.074	-15.4
1008.431	-7.5
1008.787	-1.5
1009.144	3.1
1009.5	-14
1009.857	-7.6
1010.213	-1.9
1010.569	-3.1
1010.926	-8.1
1011.282	-12.8
1011.638	-14.1
1011.994	-3.5
1012.35	-12.3
1012.706	-10.3
1013.062	-16.9
1013.418	-6.5
1013.774	-5.7
1014.13	-4.7
1014.485	-10.6
1014.841	-1.4
1015.197	-9.5
1015.552	-13.7
1015.907	4.5
1016.263	-11.9
1016.618	-8.2
1016.974	-1.5
1017.329	-8.3
1017.684	-7.4
1018.039	-14.3
1018.394	-13.9
1018.749	-7.9
1019.104	-1.2
1019.459	-1.1
1019.814	-7.6
1020.168	-15.2
1020.523	-9.7
1020.878	-16.9
1021.232	-10.2
1021.587	-7.2
1021.941	-9.4
1022.296	-18.7
1022.65	-7.6
1023.004	-17.1
1023.359	-16.4
1023.713	-17
1024.067	-10.9
1024.421	-5.5
1024.775	-14.4
1025.129	-17.1
1025.483	-10.6
1025.837	-19.1
1026.19	-12.8
1026.544	-12.5
1026.898	-13.9
1027.251	-13.9
1027.605	-10
1027.958	-14.5
1028.312	-4.2
1028.665	-11.4
1029.018	-4.8
1029.372	1.4
1029.725	-8
1030.078	-3.1
1030.431	-14.5
1030.784	-8.7
1031.137	-5.7
1031.49	2.5
1031.843	-7.2
1032.195	-9.5
1032.548	-10.6
1032.901	-10.6
1033.253	1.3
1033.606	-2.6
1033.958	-5.2
1034.311	-13.4
1034.663	4.6
1035.016	-2.4
1035.368	-14
1035.72	-3.5
1036.072	-2.7
1036.424	-1.3
1036.776	-5.5
1037.128	-1.9
1037.48	-8.1
