Data from 0.3bar_Subt2__0__18-24-43-989.txt Node

Date: Thu Jan 06 18:24:43 CET 2022
User: fsatto
Spectrometer: OFX01956
Trigger mode: 0
Integration Time (sec): 1.000000E-2
Scans to average: 10
Nonlinearity correction enabled: false
Boxcar width: 0
Storing dark spectrum: false
XAxis mode: Wavelengths
Number of Pixels in Spectrum: 2136
>>>>>Begin Spectral Data<<<<<
158.236	2.3
158.705	-7.8
159.174	-5.6
159.643	-7.5
160.112	-6.5
160.582	-10.7
161.051	-9.3
161.52	-5.1
161.988	-7.8
162.457	-14.3
162.926	-8.4
163.395	-3.3
163.864	-3.6
164.332	-7.1
164.801	-1.6
165.269	-2.1
165.738	-9.1
166.206	-10.4
166.675	-4.3
167.143	-7
167.612	-11.4
168.08	-9.1
168.548	-11.6
169.016	-1.8
169.484	-2.5
169.952	-9.2
170.42	-8.4
170.888	-4.2
171.356	-8.9
171.824	-2.7
172.292	-5.2
172.759	-15.1
173.227	-11.4
173.695	-8
174.162	-3.7
174.63	-3.9
175.097	-7.3
175.565	-4.3
176.032	-8.9
176.499	-4
176.967	-11.4
177.434	-7.4
177.901	1.8
178.368	-14.2
178.835	-14.3
179.302	-3.4
179.769	-4.3
180.236	-10.4
180.703	-10.3
181.17	-8.2
181.637	-7
182.103	-8.9
182.57	0.1
183.036	-1.8
183.503	-4.7
183.97	-12.4
184.436	0.5
184.902	-6.9
185.369	-7.6
185.835	5.9
186.301	3.4
186.767	-5.4
187.234	-5.1
187.7	-14.4
188.166	-8.3
188.632	-13.7
189.098	-8.1
189.563	-8.8
190.029	-9.3
190.495	-9.6
190.961	-6.8
191.426	-15.6
191.892	-7.1
192.358	-9.4
192.823	-7.5
193.289	-9.9
193.754	-4.1
194.219	-7.1
194.685	-13.7
195.15	-9.5
195.615	-2
196.08	-4
196.545	-6.3
197.01	-9.5
197.475	-4.7
197.94	-5.8
198.405	1.3
198.87	-6.5
199.335	-8.3
199.8	-7.7
200.264	26.3
200.729	31.8
201.193	25.9
201.658	21.9
202.122	37.9
202.587	32.9
203.051	21
203.516	39.1
203.98	31.3
204.444	28.7
204.908	38.4
205.372	40.8
205.836	47.4
206.3	59.2
206.764	43.1
207.228	57.4
207.692	47.5
208.156	64
208.62	64.1
209.083	65.6
209.547	74.8
210.011	94.8
210.474	84.8
210.938	102.4
211.401	109.7
211.864	142.2
212.328	144.4
212.791	148.9
213.254	169.3
213.717	209
214.181	233.4
214.644	278.3
215.107	328.2
215.57	364.4
216.033	450.4
216.495	558.6
216.958	714.2
217.421	824
217.884	959.2
218.346	1103.9
218.809	1221.3
219.272	1373.1
219.734	1519.8
220.196	1630
220.659	1753.4
221.121	1866.6
221.584	1989.5
222.046	2202.5
222.508	2377.1
222.97	2529.7
223.432	2665.8
223.894	2966.4
224.356	3237.7
224.818	3575.1
225.28	3973.9
225.742	4408.1
226.204	5176.2
226.665	5874
227.127	6234.2
227.589	6664.3
228.05	7122.3
228.512	7570.2
228.973	7942
229.435	7941.5
229.896	7876.8
230.357	8276.9
230.818	9210.9
231.28	9857
231.741	10516.9
232.202	10563.9
232.663	10422.6
233.124	10657.7
233.585	11619.5
234.046	12704.1
234.507	13278.9
234.967	12831.2
235.428	12475
235.889	12286.2
236.349	12627.3
236.81	13968.7
237.271	14968.6
237.731	14800.7
238.191	13948.5
238.652	13466
239.112	14225.3
239.572	15723.7
240.033	16839.5
240.493	15893.6
240.953	13952.4
241.413	12931.2
241.873	13206.7
242.333	14192.6
242.793	14439.7
243.253	13691.3
243.712	13150.7
244.172	12646.9
244.632	12551.3
245.092	13310.3
245.551	14018.2
246.011	14051.8
246.47	13776.7
246.93	14197
247.389	15845.9
247.848	17635.5
248.308	18360
248.767	18446.1
249.226	18127.3
249.685	18217.5
250.144	18763.6
250.603	20290.6
251.062	21292.4
251.521	20933
251.98	19845.9
252.439	18632.4
252.897	18573.1
253.356	19400.9
253.815	20417.7
254.273	20428.1
254.732	19372.8
255.19	17070.9
255.649	15208.5
256.107	15265.8
256.566	15908.6
257.024	16778.2
257.482	16465.7
257.94	15104.8
258.398	15337.7
258.856	15846
259.315	15901.1
259.772	15901.6
260.23	15167.6
260.688	14083.3
261.146	12919.4
261.604	12125.2
262.062	12301.7
262.519	12985
262.977	13445.1
263.434	12387.8
263.892	11296.9
264.349	11009.6
264.807	10927.6
265.264	10624.1
265.721	10370.9
266.179	10087.3
266.636	9310.5
267.093	8470.8
267.55	8194.6
268.007	8427.7
268.464	8781.6
268.921	8806.4
269.378	8225
269.835	7818.9
270.291	7710.7
270.748	7699.7
271.205	7796.5
271.661	7861.4
272.118	7588.7
272.574	7538.8
273.031	7515
273.487	7277.3
273.944	7148.6
274.4	7131
274.856	7215.3
275.312	6920.8
275.768	6605.2
276.225	6438
276.681	6341.8
277.137	6158.1
277.593	5911.5
278.048	5598.8
278.504	5413.3
278.96	5205.2
279.416	4818.8
279.871	4404.3
280.327	4190.4
280.783	4156.7
281.238	4087.4
281.694	3849.2
282.149	3637.4
282.604	3497.4
283.06	3373.6
283.515	3225.1
283.97	3064.7
284.425	2909.9
284.88	2867.2
285.335	2754.3
285.79	2551.8
286.245	2309.3
286.7	2321
287.155	2342.2
287.61	2236
288.064	2157.7
288.519	2178.8
288.974	2111
289.428	2034
289.883	1959.3
290.337	1945.4
290.792	1930.5
291.246	1921.9
291.7	1894.4
292.155	1772
292.609	1692.6
293.063	1574.6
293.517	1514.9
293.971	1447.9
294.425	1381.3
294.879	1304.7
295.333	1238.2
295.787	1108.3
296.241	1056.1
296.694	1001.7
297.148	972.6
297.602	933.9
298.055	878.5
298.509	812
298.962	718
299.416	665.2
299.869	643.4
300.322	599.9
300.775	567.3
301.229	524.8
301.682	463.5
302.135	410.5
302.588	375.8
303.041	367.2
303.494	337.5
303.947	295.4
304.4	284.8
304.852	266.6
305.305	239.8
305.758	222.4
306.21	192.1
306.663	190
307.115	171.5
307.568	167.7
308.02	159
308.473	147.9
308.925	140
309.377	133.9
309.829	108
310.282	93.9
310.734	101.7
311.186	98.5
311.638	90.7
312.09	83.8
312.542	72.4
312.993	74
313.445	59.1
313.897	58.8
314.349	53
314.8	50.5
315.252	48.9
315.703	47.7
316.155	41.9
316.606	40.2
317.058	37.9
317.509	39.6
317.96	33.6
318.411	27.2
318.863	34.5
319.314	20.8
319.765	22.2
320.216	33.5
320.667	18
321.117	22.9
321.568	19.2
322.019	20.2
322.47	26.6
322.921	7.1
323.371	11
323.822	9.7
324.272	5.5
324.723	5
325.173	6.6
325.623	-2.4
326.074	-1.6
326.524	8.3
326.974	0.9
327.424	3
327.874	13.7
328.325	-3.2
328.775	1.9
329.224	1.5
329.674	-6.8
330.124	-11.6
330.574	2.4
331.024	0.9
331.473	4
331.923	3.4
332.373	0.4
332.822	3.3
333.272	1
333.721	-5.3
334.17	-2.2
334.62	2.6
335.069	-4.2
335.518	-2.7
335.967	3.6
336.416	2.9
336.865	0.8
337.314	-6.2
337.763	-2.7
338.212	-3.9
338.661	-1
339.11	-7
339.558	-2.5
340.007	-1.4
340.456	0
340.904	-0.8
341.353	5.2
341.801	-5.9
342.25	-11.9
342.698	-8.9
343.146	1.9
343.595	-0.9
344.043	-8
344.491	0.4
344.939	-4.4
345.387	2.2
345.835	-2.2
346.283	-2.8
346.731	2.2
347.179	-7.7
347.626	-10.1
348.074	-4.2
348.522	-2.1
348.969	-2.2
349.417	-0.9
349.865	-8.9
350.312	-6.1
350.759	-13.3
351.207	-16.7
351.654	-9.1
352.101	-7.2
352.548	-2.1
352.996	-14.6
353.443	1.9
353.89	-1.3
354.337	-4
354.784	-11.1
355.231	-6.7
355.677	-7
356.124	-7.3
356.571	-3.7
357.018	-1.8
357.464	-10.1
357.911	1.4
358.357	-0.6
358.804	-3.6
359.25	5.4
359.696	-2.7
360.143	-2.2
360.589	0.3
361.035	-3.4
361.481	-4.5
361.927	-2.2
362.373	-4.2
362.819	-2.8
363.265	-1
363.711	-4.2
364.157	-2.7
364.603	-7.9
365.048	3.1
365.494	-7.3
365.94	-8.4
366.385	-9.3
366.831	-4.9
367.276	-4.7
367.722	-6.1
368.167	-12.8
368.612	-2.9
369.057	-11.7
369.503	-12.1
369.948	-8.7
370.393	-8.5
370.838	-7.4
371.283	-6.3
371.728	-16.6
372.173	-5.1
372.617	-2.2
373.062	-5.3
373.507	1.7
373.951	-2.6
374.396	0.5
374.841	-6.4
375.285	-4.4
375.729	-12.5
376.174	-12.6
376.618	-8.3
377.062	-1.7
377.507	-4.3
377.951	-15.1
378.395	-16.7
378.839	1.3
379.283	-0.1
379.727	-0.6
380.171	-2.6
380.615	-8.1
381.059	-11.3
381.502	3
381.946	-15.8
382.39	-11.8
382.833	-3.3
383.277	-2.6
383.72	1.5
384.164	-4.1
384.607	-7.3
385.05	-1.2
385.494	4.1
385.937	-7.2
386.38	-8.1
386.823	-12
387.266	-4.4
387.709	-6.9
388.152	-4.3
388.595	-7.7
389.038	-8.3
389.481	-11
389.923	-9.5
390.366	-5.5
390.809	-10.1
391.251	-1.7
391.694	-2.5
392.136	-0.2
392.579	-3.3
393.021	-8.9
393.463	-2.7
393.906	-11.2
394.348	-5.1
394.79	6.5
395.232	-1.6
395.674	-8.1
396.116	-7.4
396.558	-3.4
397	-1.8
397.442	-7
397.884	-10.9
398.325	4.2
398.767	-1.3
399.209	-8.1
399.65	-9.3
400.092	-10.3
400.533	-10.4
400.974	-17.8
401.416	-9.5
401.857	-4.9
402.298	-9.6
402.74	-12.2
403.181	-6.2
403.622	-6.1
404.063	8.4
404.504	1.8
404.945	-11.8
405.386	9.1
405.826	-7.8
406.267	-7.2
406.708	-10.3
407.149	-5.7
407.589	-5.6
408.03	-12.2
408.47	-8.2
408.911	-7.3
409.351	-9.8
409.791	-10.9
410.232	-14.3
410.672	-4.2
411.112	-2.2
411.552	-6.1
411.992	-3.9
412.432	-4.7
412.872	-4
413.312	-2.3
413.752	-7.8
414.192	-4
414.632	-13.1
415.071	-8.8
415.511	-1.5
415.951	-8.7
416.39	-4.4
416.83	-4.2
417.269	-4.4
417.708	0.2
418.148	-11.1
418.587	-4.3
419.026	-16.4
419.465	-12.1
419.904	-0.3
420.344	-4.4
420.783	-15.2
421.221	-6.8
421.66	-3
422.099	-9.7
422.538	2
422.977	-7.9
423.415	-14.9
423.854	2.5
424.293	-7.9
424.731	-3.3
425.17	-7.3
425.608	-0.1
426.046	-1.8
426.485	-12.5
426.923	-11.9
427.361	-9.5
427.799	-9.4
428.237	-12.4
428.675	-10.2
429.113	-5.9
429.551	-8.6
429.989	-7.6
430.427	4.2
430.865	-7.1
431.303	-12.5
431.74	2.9
432.178	-9.6
432.615	-13.4
433.053	-11.7
433.49	-5.7
433.928	2.2
434.365	4.5
434.802	-10.3
435.24	-2.1
435.677	-8.7
436.114	-9.1
436.551	-7.5
436.988	-2.5
437.425	0
437.862	-9.4
438.299	-10.1
438.736	-0.5
439.172	-5.2
439.609	-13.7
440.046	-14.9
440.482	-5.9
440.919	-7
441.355	-8.9
441.792	-2.9
442.228	-10.4
442.665	-6.6
443.101	-5
443.537	-0.1
443.973	2.4
444.409	-4
444.845	-0.8
445.281	-6.4
445.717	-8.5
446.153	-8.2
446.589	-10.1
447.025	-4.2
447.461	0.4
447.896	-1
448.332	-1.7
448.768	0.8
449.203	-8.7
449.639	-7.9
450.074	1.4
450.509	-5.9
450.945	-0.9
451.38	1.1
451.815	-16.8
452.25	-1.7
452.685	-6.1
453.12	0.1
453.555	-16.6
453.99	1.4
454.425	-2.8
454.86	-6.7
455.295	-5.9
455.73	-3.6
456.164	0.3
456.599	-7.9
457.033	10.8
457.468	-10.2
457.902	-2.8
458.337	3.1
458.771	-17.1
459.205	-5.2
459.64	-4.2
460.074	-3.5
460.508	-8.9
460.942	-3.9
461.376	-15.8
461.81	-7.2
462.244	-6.4
462.678	-16.3
463.112	-2.4
463.545	-4.5
463.979	-7.9
464.413	1.2
464.846	-4.9
465.28	-8
465.713	-3.3
466.147	-1.2
466.58	-5.2
467.014	-10.2
467.447	-2.7
467.88	-2.2
468.313	3.9
468.746	-5.1
469.179	-7
469.612	-1.1
470.045	-6.9
470.478	-1.3
470.911	-12.9
471.344	-2.9
471.777	-2.7
472.209	-0.1
472.642	-1.7
473.074	-10.6
473.507	8
473.939	-9.6
474.372	0
474.804	-0.7
475.236	0.8
475.669	12.2
476.101	8.9
476.533	-2.2
476.965	-4.9
477.397	7.4
477.829	9.9
478.261	-3.1
478.693	9.2
479.125	0.7
479.557	5.9
479.988	-4.1
480.42	2.1
480.852	2.1
481.283	1.1
481.715	-5.2
482.146	6.4
482.577	-2.9
483.009	-7.8
483.44	12.9
483.871	-2.5
484.302	-1.2
484.734	4
485.165	3.1
485.596	3.5
486.027	8.2
486.457	-0.1
486.888	-3
487.319	6.5
487.75	1.4
488.181	2.7
488.611	-10.2
489.042	-3.3
489.472	-1.4
489.903	-2.8
490.333	-5.4
490.764	-2.4
491.194	4.7
491.624	2.7
492.054	-4.8
492.484	-3
492.915	-0.5
493.345	2.3
493.775	-3.8
494.204	-0.3
494.634	-4.5
495.064	0.4
495.494	-11.8
495.924	-6.8
496.353	-5
496.783	-4.7
497.212	-6.7
497.642	-14.4
498.071	-1.1
498.501	-4.3
498.93	-7.2
499.359	-4.7
499.789	-6.2
500.218	-8.1
500.647	2.5
501.076	-3.3
501.505	0.4
501.934	-0.1
502.363	-3.3
502.792	-11.1
503.221	-8.1
503.649	-5
504.078	-6.9
504.507	4
504.935	-5.6
505.364	-0.5
505.792	-0.7
506.221	-14.7
506.649	-2.9
507.077	-8.7
507.506	-11
507.934	-7.6
508.362	4.1
508.79	4
509.218	-14.3
509.646	-7.3
510.074	-11.6
510.502	-13.6
510.93	-8.4
511.357	-6.5
511.785	-9
512.213	-10.6
512.64	-6.1
513.068	2.7
513.496	-3.5
513.923	-3
514.35	-3
514.778	-13.5
515.205	-7.3
515.632	-5.3
516.059	-3
516.486	1
516.914	-14.2
517.341	-8.5
517.768	-5.6
518.194	-15.3
518.621	-7.2
519.048	-12.9
519.475	-8.9
519.902	-7.9
520.328	0.8
520.755	-7.8
521.181	-14.3
521.608	-4.6
522.034	-8.3
522.461	2.6
522.887	-4.2
523.313	-8.5
523.739	-11.4
524.165	9
524.592	-14.2
525.018	-6.4
525.444	-8.2
525.869	-2.7
526.295	1.7
526.721	-3.5
527.147	-8.4
527.573	-2.3
527.998	-1.4
528.424	-1.4
528.849	-13.9
529.275	1.5
529.7	1.9
530.126	0.5
530.551	-4
530.976	-4.5
531.402	-5.4
531.827	2.6
532.252	4.2
532.677	0.1
533.102	4.2
533.527	-6.5
533.952	4.2
534.377	-9
534.801	-3.5
535.226	0.2
535.651	-13.7
536.076	-4.2
536.5	-14.6
536.925	-3.7
537.349	-1.4
537.773	-9.8
538.198	-6.2
538.622	-8.6
539.046	-6.6
539.471	1.9
539.895	-3.9
540.319	-4.7
540.743	-3.7
541.167	-5.5
541.591	-8.6
542.015	-6.1
542.438	-2.8
542.862	-7.3
543.286	-2.5
543.71	3.7
544.133	0.4
544.557	-5.3
544.98	-7.6
545.404	-5
545.827	-10.3
546.25	-3.5
546.674	0.2
547.097	-11.9
547.52	-0.3
547.943	-15
548.366	-11.5
548.789	-14.1
549.212	-3.8
549.635	-5.3
550.058	-5.5
550.481	1.9
550.903	-5.9
551.326	-1.9
551.749	-7.7
552.171	-4.4
552.594	-2.6
553.016	-6.6
553.438	-0.5
553.861	-0.6
554.283	-12.2
554.705	-1.2
555.128	-6
555.55	4.9
555.972	-7.2
556.394	-6.8
556.816	6.5
557.238	0.1
557.659	-8.5
558.081	-0.6
558.503	-2.7
558.925	-3.8
559.346	-5.1
559.768	-2.6
560.189	-11.2
560.611	-1.2
561.032	-8.9
561.454	-7.7
561.875	8.6
562.296	8.9
562.718	2.3
563.139	-3.8
563.56	-9
563.981	-3.5
564.402	-2.1
564.823	0.1
565.244	-11.1
565.664	-2.6
566.085	8
566.506	-4.3
566.927	-3.7
567.347	-9.7
567.768	-9
568.188	-2.3
568.609	-10.9
569.029	-7.2
569.449	-3.9
569.87	-4
570.29	-7.9
570.71	-6.5
571.13	0.9
571.55	-13.1
571.97	6.2
572.39	-0.6
572.81	-15.9
573.23	1.9
573.65	-3.9
574.069	-12.6
574.489	-5.7
574.909	-2.9
575.328	-5.6
575.748	-1
576.167	-3.5
576.587	-3.5
577.006	-3.5
577.425	-7.6
577.844	-0.1
578.264	-10
578.683	-14.1
579.102	-3.5
579.521	-5
579.94	-5.6
580.359	-1
580.778	-3.4
581.196	-7.4
581.615	-3.9
582.034	-14.6
582.452	-8.4
582.871	-15.6
583.29	2.2
583.708	0.1
584.126	3.7
584.545	-7.6
584.963	-8.7
585.381	-8.3
585.8	-13
586.218	2.9
586.636	-0.5
587.054	-6.2
587.472	-7.6
587.89	2.3
588.308	-13.5
588.725	1.3
589.143	0.4
589.561	-3
589.979	-11.2
590.396	-4.8
590.814	-0.9
591.231	-4.5
591.649	-14.7
592.066	-12.5
592.483	-13.5
592.901	2.9
593.318	0.1
593.735	-0.5
594.152	4.5
594.569	-8.4
594.986	-13.6
595.403	-7.6
595.82	-2.2
596.237	5.2
596.654	-3.3
597.07	-5.8
597.487	6
597.904	-9.3
598.32	-9.7
598.737	-4.5
599.153	0.1
599.57	-2.6
599.986	-0.9
600.402	9.4
600.818	-9.5
601.235	-8.3
601.651	-8
602.067	-7.6
602.483	3.7
602.899	-11.2
603.315	-4.1
603.73	1.1
604.146	-11.6
604.562	-10.4
604.978	-7.9
605.393	0.5
605.809	-11.2
606.224	-3
606.64	-3.1
607.055	-5.3
607.471	-6.9
607.886	-2.9
608.301	-3.8
608.716	-14.9
609.131	-3.8
609.547	-3.9
609.962	1.3
610.377	-1.4
610.791	-6.5
611.206	-8.5
611.621	-11.4
612.036	-3.5
612.451	2.6
612.865	-15.2
613.28	3.9
613.694	-12.8
614.109	-1.3
614.523	0.6
614.938	6.7
615.352	1.7
615.766	-8.7
616.18	11.8
616.595	9.9
617.009	-0.4
617.423	-5
617.837	0.1
618.251	-8.2
618.664	-4.8
619.078	-1.1
619.492	1.3
619.906	0.8
620.319	5.2
620.733	6.7
621.146	0.3
621.56	9.1
621.973	9.1
622.387	14.5
622.8	-0.5
623.213	10.8
623.627	7.8
624.04	15.8
624.453	6.7
624.866	7.7
625.279	5.9
625.692	8.9
626.105	15.8
626.518	10.3
626.93	4.3
627.343	18.9
627.756	14.1
628.168	18.7
628.581	17.5
628.993	12
629.406	22.1
629.818	18.5
630.231	23.2
630.643	15.7
631.055	27.5
631.467	27.5
631.879	18.7
632.291	29.8
632.703	34.7
633.115	31.3
633.527	42.2
633.939	48.4
634.351	50.3
634.763	57
635.174	58.8
635.586	69.6
635.997	70
636.409	66
636.82	68
637.232	67.5
637.643	70.6
638.054	78.8
638.466	88.4
638.877	90.4
639.288	83.9
639.699	87.8
640.11	89.9
640.521	90.2
640.932	104.8
641.343	85
641.753	100.8
642.164	101.7
642.575	111.9
642.986	103.6
643.396	94.1
643.807	105.4
644.217	107.3
644.627	107
645.038	102.7
645.448	102.4
645.858	89.3
646.269	89.8
646.679	94
647.089	90.4
647.499	83.3
647.909	95.2
648.319	103.3
648.728	82.7
649.138	83
649.548	90
649.958	80.8
650.367	74.1
650.777	73.3
651.186	73.8
651.596	73.5
652.005	65.3
652.415	66.5
652.824	73.6
653.233	61.4
653.642	62.2
654.052	66.9
654.461	77.1
654.87	60.6
655.279	70.7
655.688	69.2
656.096	63.2
656.505	69.5
656.914	65.3
657.323	59.6
657.731	76.3
658.14	58.5
658.548	53.9
658.957	62.4
659.365	56.5
659.774	60.3
660.182	49.5
660.59	59.7
660.998	66.1
661.407	53
661.815	49.2
662.223	41.3
662.631	52.1
663.039	54.1
663.446	50.4
663.854	37
664.262	45.8
664.67	41
665.077	42.4
665.485	33.6
665.892	42.9
666.3	33
666.707	38.4
667.115	41.9
667.522	33.9
667.929	34.3
668.337	31.3
668.744	24.9
669.151	15.1
669.558	20.2
669.965	11
670.372	19.6
670.779	14.5
671.185	23.7
671.592	18.1
671.999	19.6
672.405	17.2
672.812	10.6
673.219	9.7
673.625	11.7
674.032	8.4
674.438	2.3
674.844	9.1
675.25	9.4
675.657	1.2
676.063	-2.2
676.469	-4.8
676.875	4.3
677.281	1.5
677.687	-4.8
678.093	0.4
678.499	-2.9
678.904	-12.7
679.31	-4.1
679.716	5.6
680.121	-5.2
680.527	-4.1
680.932	-3.6
681.338	-4.4
681.743	-7.6
682.148	-7.1
682.554	3.1
682.959	-0.2
683.364	-0.5
683.769	7.7
684.174	-5.3
684.579	-4.7
684.984	-1.6
685.389	-7.3
685.794	-10.4
686.199	-6.4
686.603	-9.7
687.008	-9.6
687.413	-0.9
687.817	-0.7
688.222	-12.5
688.626	-10.7
689.03	-11.1
689.435	-4.3
689.839	-3.4
690.243	-6.4
690.647	0.3
691.051	-0.1
691.456	-0.6
691.859	-8.1
692.263	1.2
692.667	-2.2
693.071	-12.7
693.475	-7.2
693.879	0.8
694.282	-2.9
694.686	-9.9
695.089	-2.8
695.493	-0.1
695.896	-5.2
696.3	-4.9
696.703	-4.3
697.106	-8.3
697.509	-5.1
697.913	-5.7
698.316	-11.9
698.719	6.5
699.122	0.4
699.525	-1.9
699.928	0.1
700.33	0.7
700.733	2.9
701.136	5.2
701.539	-9
701.941	-11.5
702.344	-10.5
702.746	-1.7
703.149	-13.4
703.551	-8.6
703.953	-12.3
704.356	-4.7
704.758	-11.7
705.16	-5.9
705.562	-5.3
705.964	-5.6
706.366	-6.8
706.768	-10.4
707.17	0.1
707.572	-2
707.973	-8.9
708.375	-9.5
708.777	-10.5
709.178	4.3
709.58	-9.2
709.981	-9.7
710.383	-11.1
710.784	-3.4
711.186	-12.6
711.587	-7.8
711.988	-2.6
712.389	-1
712.79	-6.3
713.191	-6.1
713.592	-5
713.993	-10.9
714.394	-7.5
714.795	-9.2
715.196	-4.7
715.596	-16.2
715.997	-6.4
716.398	-8.8
716.798	-10.7
717.199	3.8
717.599	2.9
718	3.9
718.4	0.1
718.8	-8.5
719.2	-4.6
719.6	-5.6
720.001	-4.8
720.401	-3.7
720.801	-5.8
721.201	-7.9
721.6	-6.3
722	-0.8
722.4	1.6
722.8	-1.2
723.199	-6.5
723.599	-2.6
723.998	-4.6
724.398	-11.1
724.797	-8.7
725.197	-13
725.596	-4.9
725.995	-1.9
726.394	-8.6
726.794	-1.1
727.193	-3
727.592	-1.3
727.991	-7.8
728.39	-12.2
728.789	-13.6
729.187	-4.4
729.586	4.5
729.985	-10.2
730.383	-8.5
730.782	-1
731.181	-6.5
731.579	-0.9
731.977	1.8
732.376	-3.9
732.774	-4.7
733.172	-7.8
733.571	-6.5
733.969	-9.4
734.367	0.8
734.765	2.7
735.163	4.7
735.561	4.5
735.959	12
736.356	3.2
736.754	8.7
737.152	6.9
737.55	-1.6
737.947	2.4
738.345	15.4
738.742	10.6
739.14	-0.9
739.537	14.4
739.934	21
740.331	20.4
740.729	11.9
741.126	21.6
741.523	10.7
741.92	20.6
742.317	31
742.714	9.1
743.111	17.1
743.507	17.7
743.904	14.3
744.301	17.9
744.697	13.3
745.094	23.6
745.491	15.5
745.887	23.8
746.283	32
746.68	8.2
747.076	23.9
747.472	22.2
747.869	16.1
748.265	25.6
748.661	19.9
749.057	13.3
749.453	20.6
749.849	20.5
750.244	16.6
750.64	15.4
751.036	10.2
751.432	23.8
751.827	15.2
752.223	18.5
752.618	23.9
753.014	18.5
753.409	19.8
753.805	20.9
754.2	7.9
754.595	27.4
754.99	20.4
755.385	18.8
755.78	21.3
756.175	27.7
756.57	32.4
756.965	27
757.36	19.6
757.755	35.4
758.15	35.1
758.544	35.7
758.939	45.4
759.334	50.5
759.728	39.8
760.122	43.2
760.517	54
760.911	54.8
761.306	45.2
761.7	58.9
762.094	43.7
762.488	59.5
762.882	43.4
763.276	39.6
763.67	43.7
764.064	50.8
764.458	52.2
764.852	57.8
765.245	65.7
765.639	65.2
766.033	57.9
766.426	64
766.82	73.9
767.213	79.8
767.606	70
768	57.9
768.393	65.8
768.786	56.5
769.179	67
769.572	71.1
769.966	66.9
770.358	63.8
770.751	63.2
771.144	72.1
771.537	68.2
771.93	68.7
772.323	65.2
772.715	72.5
773.108	67.7
773.5	65.8
773.893	52.5
774.285	56.7
774.678	55.4
775.07	45.5
775.462	42.8
775.854	42.5
776.247	42.4
776.639	45.8
777.031	38.7
777.423	43.8
777.815	31.7
778.207	41.1
778.598	48.9
778.99	47.6
779.382	53.7
779.773	59.5
780.165	53.8
780.557	69.1
780.948	65.2
781.339	69.9
781.731	66
782.122	84
782.513	73.8
782.905	78.3
783.296	69.9
783.687	58
784.078	67
784.469	69.6
784.86	60.3
785.251	60.7
785.641	58.8
786.032	61.9
786.423	60.4
786.813	70.8
787.204	58.9
787.594	54.1
787.985	47.9
788.375	63.6
788.766	53.3
789.156	35.1
789.546	43
789.936	31.4
790.326	34.9
790.717	32.3
791.107	32.3
791.497	23.8
791.886	31
792.276	26
792.666	20.9
793.056	18.3
793.445	18.9
793.835	11.3
794.225	24.5
794.614	18.8
795.004	21.3
795.393	9.4
795.782	22
796.172	20.6
796.561	19.6
796.95	15.4
797.339	23
797.728	14.2
798.117	10.3
798.506	24.1
798.895	15
799.284	17.8
799.673	22.2
800.061	26.5
800.45	15.7
800.839	5.8
801.227	16.4
801.616	7.8
802.004	10.4
802.392	7.3
802.781	6.7
803.169	-0.1
803.557	0.8
803.945	3.1
804.333	2.6
804.721	2.1
805.109	5.1
805.497	6.6
805.885	0.5
806.273	4.3
806.661	0.9
807.048	12.1
807.436	3.2
807.824	-1.8
808.211	-8
808.599	-1
808.986	-3.2
809.373	-2.5
809.761	-0.7
810.148	-1.2
810.535	-8.1
810.922	-1.5
811.309	-1.3
811.696	-7.7
812.083	-8.8
812.47	-6.3
812.857	3.1
813.244	-6.8
813.631	-3
814.017	-1.2
814.404	6.3
814.791	-14.3
815.177	3.4
815.564	4.7
815.95	-4.4
816.336	3.7
816.723	2.2
817.109	-15
817.495	-2.5
817.881	4.8
818.267	0.4
818.653	-10.3
819.039	-0.4
819.425	-9.7
819.811	-3.1
820.197	-3.9
820.582	-5.5
820.968	-3.9
821.354	1.2
821.739	-4.7
822.125	-7.1
822.51	-3.9
822.895	-0.3
823.281	-3.5
823.666	-3.9
824.051	-1.3
824.436	-2.9
824.822	-2.9
825.207	-12.4
825.592	-5.6
825.976	-12.3
826.361	-5.9
826.746	-0.1
827.131	-5.8
827.516	-4.6
827.9	1.3
828.285	-10.5
828.669	-8.8
829.054	-6.3
829.438	-0.3
829.823	-4.7
830.207	0.9
830.591	-14.2
830.975	-6.4
831.36	-12
831.744	-5.8
832.128	-12.3
832.512	-3.1
832.895	-6.4
833.279	-6.4
833.663	0.9
834.047	-4
834.431	-4.3
834.814	-5.5
835.198	-10.3
835.581	-4.3
835.965	-11.3
836.348	-4.8
836.731	-6.8
837.115	-9.4
837.498	-13.5
837.881	5
838.264	-9.9
838.647	-2.9
839.03	-1.8
839.413	-4.4
839.796	5.2
840.179	-2.3
840.562	-5.1
840.944	-9.4
841.327	-14.3
841.71	-5
842.092	3.2
842.475	3.4
842.857	-13.4
843.24	-6.4
843.622	-10.5
844.004	-2
844.386	0.4
844.769	-7.4
845.151	-7.3
845.533	1.8
845.915	-5.9
846.297	-6.8
846.678	-1.2
847.06	-4.5
847.442	-6.9
847.824	-8.9
848.205	-14.8
848.587	-3.7
848.968	-11.6
849.35	-1.1
849.731	-9.7
850.113	-13.2
850.494	-7.4
850.875	-12.5
851.256	-2.9
851.638	-12.9
852.019	-8.7
852.4	-4.9
852.781	-11.5
853.161	-14.6
853.542	-4
853.923	4.8
854.304	-9.9
854.685	0.3
855.065	-0.1
855.446	-16.6
855.826	-15.2
856.207	-9.3
856.587	-3
856.967	-7.7
857.348	-10.4
857.728	-2.8
858.108	-13.2
858.488	0.4
858.868	-1.2
859.248	-12.4
859.628	-14.5
860.008	-7.3
860.388	-7.6
860.768	-6.4
861.147	-5.2
861.527	-9.1
861.907	-9.1
862.286	-9.8
862.666	-8.1
863.045	-3.4
863.424	-0.1
863.804	-5.8
864.183	6.1
864.562	-13.7
864.941	-14.4
865.32	-3
865.699	-6.8
866.078	-5.7
866.457	-14.1
866.836	-12
867.215	-8.5
867.594	-8.1
867.972	-9.5
868.351	-10.2
868.729	-4.3
869.108	-1.8
869.486	-9.9
869.865	-12.9
870.243	-1.5
870.621	1.6
871	-10
871.378	-10.8
871.756	-6.3
872.134	-6.8
872.512	-11.2
872.89	-9.8
873.268	-10.5
873.646	-9.3
874.023	-2.1
874.401	-2.2
874.779	-4.8
875.156	-1.8
875.534	-5.6
875.911	0.6
876.289	-13.9
876.666	-22.5
877.043	-5.6
877.421	-15.2
877.798	-3.9
878.175	-12.6
878.552	2.9
878.929	-9.9
879.306	-3.7
879.683	-3.3
880.06	-4.1
880.437	-12.8
880.813	-2.2
881.19	2.1
881.567	-2.9
881.943	-10.7
882.32	-6.4
882.696	-7.3
883.073	-15.7
883.449	-6.8
883.825	-12
884.202	-3.1
884.578	-4.9
884.954	-5.9
885.33	-5.9
885.706	0.8
886.082	-8.1
886.458	-3.1
886.834	-6.6
887.209	-4.8
887.585	0
887.961	-8.2
888.336	-9.1
888.712	-2.3
889.087	-11.3
889.463	-9.3
889.838	-8.5
890.213	-3.6
890.589	-4.8
890.964	-11.6
891.339	-7.2
891.714	-11.5
892.089	-3.3
892.464	-6.3
892.839	-7.3
893.214	-12.2
893.589	-6.2
893.963	-11.4
894.338	-5.6
894.713	-7.7
895.087	-1.5
895.462	-7.7
895.836	0.7
896.211	3.9
896.585	-6.2
896.959	-6.3
897.334	-3.9
897.708	-1.4
898.082	1.2
898.456	-11.5
898.83	-6.2
899.204	2.6
899.578	3
899.952	-3.4
900.325	-1.2
900.699	0.5
901.073	2.1
901.446	-5.8
901.82	2.6
902.193	-12.3
902.567	-5.8
902.94	-8.1
903.313	-10.1
903.687	-12.7
904.06	7
904.433	-5.2
904.806	-7.2
905.179	-9.3
905.552	-7
905.925	5.6
906.298	-0.9
906.671	-6.5
907.043	2.6
907.416	-8.7
907.789	4.8
908.161	0.6
908.534	-6
908.906	-15.3
909.279	-2.6
909.651	-9.8
910.023	-7.8
910.396	-1.4
910.768	-3.9
911.14	-6.2
911.512	-1.4
911.884	-10.8
912.256	-9.5
912.628	-3.4
912.999	4.1
913.371	-6.6
913.743	-11.7
914.115	3.1
914.486	-6.4
914.858	-4.2
915.229	-2.2
915.601	-3.5
915.972	2.5
916.343	4.4
916.715	-5.3
917.086	-8.8
917.457	-5.5
917.828	-4.6
918.199	-9.2
918.57	-2.9
918.941	-6.3
919.312	2.5
919.682	-5.9
920.053	3.9
920.424	-0.6
920.794	-4.3
921.165	0.9
921.536	-2.1
921.906	0
922.276	0.6
922.647	-13.2
923.017	-2.1
923.387	-1.4
923.757	6.9
924.127	-3.7
924.497	-13.5
924.867	-2.6
925.237	1.3
925.607	0.1
925.977	4.7
926.347	-0.6
926.716	1.6
927.086	-0.4
927.456	-0.3
927.825	-3.1
928.195	-1.7
928.564	3.2
928.933	-3
929.303	-1.4
929.672	-9.9
930.041	3.1
930.41	7.3
930.779	-1.3
931.148	-8.3
931.517	3.4
931.886	-12.1
932.255	11.6
932.624	-1.1
932.993	0.4
933.361	-0.8
933.73	2.6
934.098	-4.8
934.467	4.4
934.835	2.5
935.204	-11
935.572	-15.8
935.94	2.8
936.308	0.3
936.677	-4.6
937.045	-0.5
937.413	3
937.781	-7.8
938.149	2.2
938.516	2.5
938.884	-9.1
939.252	3.7
939.62	-0.9
939.987	10.6
940.355	-2.6
940.722	-4
941.09	-8.9
941.457	-4.1
941.825	-4
942.192	3.1
942.559	-1
942.926	0.1
943.293	-2.5
943.66	0.9
944.027	2.1
944.394	9.3
944.761	-5.4
945.128	-4.6
945.495	6.7
945.861	-1.4
946.228	-9
946.595	-4.3
946.961	-2.1
947.328	4.2
947.694	0.6
948.06	-2
948.427	-3.9
948.793	-6.2
949.159	-5.2
949.525	-7
949.891	-4.5
950.257	-10.8
950.623	-4.9
950.989	13.1
951.355	-1.5
951.721	0.5
952.087	-4.1
952.452	-5.6
952.818	-7.4
953.183	-0.4
953.549	-3.5
953.914	-1.2
954.28	-6.8
954.645	-2.2
955.01	1.4
955.375	0.9
955.741	5.7
956.106	8.1
956.471	-15
956.836	-10.6
957.201	-5.1
957.566	-2.6
957.93	-2.8
958.295	-1.8
958.66	4.2
959.024	-6.5
959.389	-9.1
959.753	-5.9
960.118	-8.1
960.482	-5.4
960.847	3.1
961.211	2.9
961.575	3.2
961.939	-14.2
962.303	-5.7
962.667	-3.9
963.031	-10.7
963.395	-6.7
963.759	-2.4
964.123	-2.6
964.487	-7
964.851	-5.8
965.214	-1.9
965.578	-8.5
965.941	-10.3
966.305	-17.2
966.668	-12.6
967.032	-11.2
967.395	4.3
967.758	-7.5
968.121	-1.4
968.484	-3.1
968.847	-4.3
969.21	-8.1
969.573	-0.9
969.936	-9.4
970.299	-10.4
970.662	-12.7
971.025	-14.8
971.387	-0.1
971.75	-4.3
972.112	1.2
972.475	0
972.837	-1.5
973.2	-9.9
973.562	2.8
973.924	-1
974.286	-1.4
974.649	-5.2
975.011	-8.6
975.373	-10
975.735	-4.7
976.097	0.4
976.458	-1.9
976.82	-6.6
977.182	0.9
977.544	-5.6
977.905	4
978.267	-2.9
978.628	-7.1
978.99	-5.6
979.351	-4.3
979.712	-6
980.074	-12.2
980.435	-5.6
980.796	0.8
981.157	-10.9
981.518	5
981.879	-6
982.24	-8.9
982.601	-2.2
982.962	-7.4
983.323	-10.3
983.683	-1.4
984.044	0.5
984.404	-26.9
984.765	-1.1
985.125	-3.5
985.486	0.1
985.846	-2.1
986.206	-0.6
986.567	-9.1
986.927	-5.5
987.287	-5.9
987.647	-1.4
988.007	0.4
988.367	-19.6
988.727	-6.1
989.087	-3.4
989.446	-3.5
989.806	-10.3
990.166	-1.6
990.525	-1.1
990.885	-15.6
991.244	2.2
991.604	0.1
991.963	-1.2
992.322	-6
992.682	-15.7
993.041	-5.8
993.4	-0.1
993.759	-7.9
994.118	-12
994.477	4.6
994.836	-9.1
995.195	-11.3
995.553	-6.7
995.912	0.3
996.271	-7.8
996.629	-4.4
996.988	-6.2
997.346	-7.5
997.705	-9.3
998.063	-6.4
998.422	-9.3
998.78	-2.6
999.138	-6.7
999.496	-15.9
999.854	-0.9
1000.212	-12
1000.57	-12.2
1000.928	-9.4
1001.286	9.1
1001.644	-12.2
1002.001	-4.1
1002.359	-6.1
1002.717	-5.8
1003.074	-6.8
1003.432	-4.8
1003.789	-5.7
1004.147	-4.8
1004.504	-10.2
1004.861	-5.6
1005.218	-0.5
1005.576	-7.7
1005.933	-8.8
1006.29	-15.1
1006.647	-6.8
1007.004	-3.8
1007.36	-14
1007.717	-10.5
1008.074	0.3
1008.431	-1.2
1008.787	-4.8
1009.144	-5.9
1009.5	-14.9
1009.857	-10.6
1010.213	4.3
1010.569	-5.1
1010.926	-4.8
1011.282	-3.9
1011.638	-10.7
1011.994	-6.4
1012.35	-4.7
1012.706	-8.7
1013.062	-16.1
1013.418	-11
1013.774	-12.1
1014.13	-7.6
1014.485	-3.8
1014.841	-7
1015.197	-5.1
1015.552	-15
1015.907	-9.5
1016.263	-6.5
1016.618	-2
1016.974	3.9
1017.329	-0.7
1017.684	-10.4
1018.039	-22.3
1018.394	-10.1
1018.749	-9.8
1019.104	-5.2
1019.459	2.3
1019.814	3
1020.168	-13.9
1020.523	-9.6
1020.878	-12.4
1021.232	-13.2
1021.587	0
1021.941	-8.3
1022.296	-16.9
1022.65	-5.2
1023.004	-12.3
1023.359	-11.1
1023.713	-6.3
1024.067	-3.2
1024.421	-2.1
1024.775	-12.3
1025.129	-12.7
1025.483	-5.9
1025.837	-13.5
1026.19	-6.5
1026.544	-16.4
1026.898	-15.9
1027.251	-11.6
1027.605	-9.2
1027.958	-9.9
1028.312	-5
1028.665	-3.1
1029.018	-7.4
1029.372	4.4
1029.725	-14.5
1030.078	-5.5
1030.431	-5.4
1030.784	-6.8
1031.137	-11.9
1031.49	-8
1031.843	-7.1
1032.195	-9.2
1032.548	-22.1
1032.901	-8.5
1033.253	-3.4
1033.606	-3.8
1033.958	-12.8
1034.311	-9.8
1034.663	-5.9
1035.016	-2.1
1035.368	-22.1
1035.72	-6.6
1036.072	-10.3
1036.424	-2.8
1036.776	-11.2
1037.128	-4.6
1037.48	-13.3
