Data from 0.5bar_Subt2__0__18-23-24-684.txt Node

Date: Thu Jan 06 18:23:24 CET 2022
User: fsatto
Spectrometer: OFX01956
Trigger mode: 0
Integration Time (sec): 1.000000E-2
Scans to average: 10
Nonlinearity correction enabled: false
Boxcar width: 0
Storing dark spectrum: false
XAxis mode: Wavelengths
Number of Pixels in Spectrum: 2136
>>>>>Begin Spectral Data<<<<<
158.236	1.8
158.705	-0.2
159.174	7.6
159.643	-5.1
160.112	-0.6
160.582	1
161.051	1.4
161.52	-2.8
161.988	1.6
162.457	-4.2
162.926	-6.4
163.395	-3.3
163.864	5.6
164.332	-3.9
164.801	6.6
165.269	-0.8
165.738	-4.5
166.206	-6.5
166.675	0.1
167.143	-3.4
167.612	-4.6
168.08	-8.3
168.548	2.9
169.016	1.1
169.484	-2.6
169.952	-6.2
170.42	-4
170.888	-3.6
171.356	1
171.824	-3.9
172.292	-6
172.759	-6
173.227	-1.8
173.695	-2.1
174.162	-2.8
174.63	2.2
175.097	-6.5
175.565	-4.3
176.032	-6.3
176.499	0.9
176.967	-6.4
177.434	-6.3
177.901	7.3
178.368	-7.8
178.835	-6.3
179.302	-2.3
179.769	-7.9
180.236	-6.3
180.703	-0.7
181.17	-7.9
181.637	-1.3
182.103	-7.6
182.57	-0.7
183.036	-3.1
183.503	-2.6
183.97	-4.6
184.436	-3.4
184.902	-4.4
185.369	-3.1
185.835	2.8
186.301	10.2
186.767	-2.8
187.234	-4.3
187.7	-10.8
188.166	-7.4
188.632	-8.9
189.098	-0.8
189.563	-1.8
190.029	-5.8
190.495	-8.3
190.961	-8.6
191.426	-11.5
191.892	-1.1
192.358	-9.1
192.823	-5.4
193.289	1.5
193.754	-1
194.219	-2.2
194.685	-5.2
195.15	-3
195.615	-1.2
196.08	1.3
196.545	-2.9
197.01	1.2
197.475	-0.2
197.94	-1.4
198.405	-2.1
198.87	-1.3
199.335	2.9
199.8	-0.5
200.264	50
200.729	47.7
201.193	46
201.658	49.1
202.122	51.3
202.587	60
203.051	57.3
203.516	49.3
203.98	53.7
204.444	61.6
204.908	46.7
205.372	61.8
205.836	66.7
206.3	60.9
206.764	68.3
207.228	71.6
207.692	74.4
208.156	76.7
208.62	88.1
209.083	82.6
209.547	91.3
210.011	100.2
210.474	112.1
210.938	133.1
211.401	157.8
211.864	181.3
212.328	198.7
212.791	216
213.254	247.8
213.717	297.6
214.181	341.4
214.644	402.1
215.107	472.7
215.57	526.6
216.033	627.6
216.495	761.1
216.958	983.7
217.421	1088.8
217.884	1270.5
218.346	1383.5
218.809	1485.8
219.272	1672.4
219.734	1851.9
220.196	2028.8
220.659	2160.9
221.121	2206.2
221.584	2272.6
222.046	2495.6
222.508	2717.2
222.97	2931.2
223.432	3150.8
223.894	3329.5
224.356	3643.5
224.818	3962.5
225.28	4363.4
225.742	4941.4
226.204	5842.6
226.665	6430.8
227.127	6706.2
227.589	7080.4
228.05	7683.1
228.512	8383.8
228.973	8786.1
229.435	8469.8
229.896	8156
230.357	8618.2
230.818	9686.1
231.28	10524.8
231.741	11181.4
232.202	11055.8
232.663	10611
233.124	10807.1
233.585	11986.1
234.046	13549.3
234.507	14073.1
234.967	13365.8
235.428	12833.7
235.889	12556.2
236.349	13278.4
236.81	14958.1
237.271	16145.4
237.731	15990.6
238.191	14975.2
238.652	14652.9
239.112	15786.6
239.572	17875
240.033	19336
240.493	18264.4
240.953	16425.8
241.413	15508
241.873	16293.6
242.333	17739
242.793	18268.6
243.253	17442.3
243.712	17045.2
244.172	16787.5
244.632	17039.8
245.092	18399.4
245.551	19554.3
246.011	19689.3
246.47	19377.7
246.93	20348.2
247.389	22841.2
247.848	25709.7
248.308	27073.8
248.767	27413.6
249.226	26962.4
249.685	27196.7
250.144	28037.7
250.603	30218.9
251.062	31796.4
251.521	31257.2
251.98	29390.8
252.439	28184.2
252.897	28180.9
253.356	29827.8
253.815	31376.2
254.273	31339.5
254.732	29904.9
255.19	26451.3
255.649	23732.5
256.107	23991.5
256.566	25029.1
257.024	26592
257.482	26060
257.94	24016.4
258.398	24645.4
258.856	25512.6
259.315	25754.7
259.772	25799.4
260.23	24661.3
260.688	22770.2
261.146	21045
261.604	19959.6
262.062	20264.4
262.519	21444.3
262.977	22115.1
263.434	20479.7
263.892	18972.5
264.349	18205.3
264.807	18249.5
265.264	18084.8
265.721	17654.2
266.179	17274.8
266.636	15900.2
267.093	14500.8
267.55	14028.8
268.007	14646.4
268.464	15361.8
268.921	15392.9
269.378	14494.7
269.835	13765.5
270.291	13636.7
270.748	13508.6
271.205	13796.5
271.661	13820.9
272.118	13452.5
272.574	13295.2
273.031	13337.8
273.487	13066
273.944	12833.4
274.4	12841
274.856	13034.6
275.312	12443.2
275.768	11854.9
276.225	11514.9
276.681	11392.3
277.137	11158.5
277.593	10718.4
278.048	10249.3
278.504	9915.6
278.96	9517.3
279.416	8807.6
279.871	8109.9
280.327	7814.7
280.783	7812.1
281.238	7692.5
281.694	7315
282.149	6950
282.604	6720.1
283.06	6436.3
283.515	6150.2
283.97	5962.3
284.425	5766.8
284.88	5626.5
285.335	5478
285.79	5010.2
286.245	4551.5
286.7	4655.3
287.155	4722.3
287.61	4575.9
288.064	4496.7
288.519	4562.3
288.974	4432.5
289.428	4255.1
289.883	4182.8
290.337	4224.7
290.792	4273.7
291.246	4305
291.7	4271.2
292.155	4096.6
292.609	3884.6
293.063	3632.6
293.517	3448.5
293.971	3369.4
294.425	3287.1
294.879	3164.7
295.333	2999.5
295.787	2766.9
296.241	2569.6
296.694	2494.2
297.148	2457.7
297.602	2415
298.055	2376.8
298.509	2190.1
298.962	1969.3
299.416	1869.2
299.869	1810.5
300.322	1786.8
300.775	1672.3
301.229	1557.7
301.682	1425.6
302.135	1310.6
302.588	1189.8
303.041	1137.6
303.494	1059.8
303.947	998.5
304.4	935.8
304.852	870.3
305.305	792.9
305.758	745.4
306.21	673.3
306.663	640
307.115	608.3
307.568	592.6
308.02	589.7
308.473	536.6
308.925	488.9
309.377	452.9
309.829	431.8
310.282	413.1
310.734	406.1
311.186	376.3
311.638	350.7
312.09	329.9
312.542	303.1
312.993	285.1
313.445	265.2
313.897	257.3
314.349	233.9
314.8	222.4
315.252	213.7
315.703	201.3
316.155	185.3
316.606	186.9
317.058	175.1
317.509	165.8
317.96	155.8
318.411	141.6
318.863	147.5
319.314	133.6
319.765	125.4
320.216	115.4
320.667	108
321.117	107.8
321.568	96.9
322.019	94.6
322.47	108.5
322.921	79.2
323.371	70
323.822	67.2
324.272	63.2
324.723	56.3
325.173	45.5
325.623	52.2
326.074	36.6
326.524	48.3
326.974	46.7
327.424	67.6
327.874	82.3
328.325	55.9
328.775	44.3
329.224	32.2
329.674	32.1
330.124	28.7
330.574	38.7
331.024	19
331.473	27.6
331.923	27.1
332.373	20.8
332.822	21.2
333.272	12.2
333.721	28.8
334.17	10.3
334.62	21.2
335.069	12.8
335.518	12.2
335.967	13.5
336.416	19.7
336.865	4.3
337.314	5.7
337.763	10.9
338.212	13.4
338.661	5.6
339.11	9.2
339.558	12
340.007	8.5
340.456	9.4
340.904	2.3
341.353	11.1
341.801	-1.5
342.25	7.2
342.698	-5
343.146	12.9
343.595	-4.1
344.043	-0.2
344.491	5.7
344.939	-1
345.387	6.1
345.835	9.7
346.283	5.6
346.731	14.6
347.179	2.1
347.626	4.8
348.074	0.6
348.522	8.5
348.969	9.9
349.417	4.8
349.865	-4.3
350.312	-1.7
350.759	1.6
351.207	0.2
351.654	-6.1
352.101	-4.1
352.548	0.9
352.996	0.5
353.443	6.4
353.89	0.9
354.337	-0.6
354.784	-3.3
355.231	-2.1
355.677	-2.3
356.124	2.9
356.571	0.3
357.018	0.4
357.464	-5.6
357.911	3.4
358.357	4.6
358.804	1.8
359.25	6.7
359.696	1.2
360.143	4.2
360.589	1.3
361.035	3
361.481	1.8
361.927	9.4
362.373	7.6
362.819	5.9
363.265	4.5
363.711	1
364.157	-1.3
364.603	-2.5
365.048	4.4
365.494	3.7
365.94	-1
366.385	-8.9
366.831	3.4
367.276	1.3
367.722	0
368.167	-5.4
368.612	3.5
369.057	-4.1
369.503	3.8
369.948	0.9
370.393	2.2
370.838	6.9
371.283	6
371.728	-11.2
372.173	-2.6
372.617	4.8
373.062	3.4
373.507	-1.3
373.951	4.7
374.396	4.8
374.841	0.1
375.285	5.5
375.729	-6.9
376.174	-4.1
376.618	-0.8
377.062	-2.6
377.507	-0.2
377.951	-2.3
378.395	-2.1
378.839	4.7
379.283	-7.2
379.727	7.5
380.171	-0.3
380.615	2.2
381.059	6.1
381.502	5.1
381.946	-2.8
382.39	-4.7
382.833	5.4
383.277	0.1
383.72	1.7
384.164	-2.4
384.607	-1.2
385.05	8.5
385.494	10.6
385.937	1.4
386.38	3.5
386.823	-6.4
387.266	7.3
387.709	5.3
388.152	-11.9
388.595	1.2
389.038	3.1
389.481	1.8
389.923	-5.4
390.366	-1.4
390.809	-4.2
391.251	3
391.694	-0.2
392.136	11.1
392.579	6.1
393.021	-0.4
393.463	-3.9
393.906	-1
394.348	5.6
394.79	13.3
395.232	5.6
395.674	6.3
396.116	3.3
396.558	1.1
397	2.8
397.442	4.3
397.884	-4.6
398.325	0.3
398.767	3.5
399.209	3
399.65	2.4
400.092	-2.1
400.533	2.5
400.974	-9.4
401.416	-11.8
401.857	3
402.298	-4.6
402.74	1.2
403.181	2
403.622	2.7
404.063	6.9
404.504	8.2
404.945	-5.4
405.386	13.1
405.826	-5.6
406.267	2.1
406.708	1
407.149	-0.1
407.589	-3.7
408.03	2.6
408.47	-2
408.911	2.7
409.351	5.4
409.791	10
410.232	0.3
410.672	6.5
411.112	0.9
411.552	6
411.992	1.6
412.432	-1.9
412.872	0.5
413.312	4.5
413.752	1.2
414.192	3.3
414.632	-2.8
415.071	1.9
415.511	9.6
415.951	-0.6
416.39	13.8
416.83	-0.8
417.269	3
417.708	7.9
418.148	1.3
418.587	2.1
419.026	-4.2
419.465	5.5
419.904	5.7
420.344	5.1
420.783	-3
421.221	5.7
421.66	-2.6
422.099	-3.4
422.538	5.5
422.977	-5.8
423.415	1.8
423.854	10.8
424.293	3
424.731	1
425.17	2.1
425.608	4.4
426.046	4.1
426.485	-5.4
426.923	-2.2
427.361	1.3
427.799	3.3
428.237	1.8
428.675	-4.7
429.113	7.2
429.551	-2.9
429.989	-6.9
430.427	0.8
430.865	-4
431.303	-2.9
431.74	-2.7
432.178	0.4
432.615	-2.2
433.053	-6.2
433.49	3.3
433.928	8.6
434.365	8.9
434.802	-3.1
435.24	8.1
435.677	2.7
436.114	-1.8
436.551	2.5
436.988	6.1
437.425	15.1
437.862	4.7
438.299	-5.1
438.736	2.9
439.172	3.2
439.609	-1.5
440.046	-4.5
440.482	2
440.919	-0.8
441.355	8.3
441.792	1.6
442.228	-3.8
442.665	7
443.101	-0.4
443.537	-2.1
443.973	4.3
444.409	4.1
444.845	14
445.281	6.4
445.717	0.8
446.153	3.2
446.589	-2.3
447.025	13.9
447.461	8.7
447.896	4.8
448.332	4.3
448.768	2.3
449.203	-5.3
449.639	2.2
450.074	6
450.509	4
450.945	9
451.38	0.7
451.815	-9.3
452.25	2.6
452.685	-2.2
453.12	0.8
453.555	-3.8
453.99	-1.4
454.425	1.7
454.86	8.9
455.295	-7.6
455.73	0.8
456.164	13
456.599	-1.5
457.033	9.8
457.468	-4.6
457.902	0.1
458.337	-2.1
458.771	-4.4
459.205	-3.8
459.64	3.6
460.074	9.8
460.508	3.6
460.942	15.3
461.376	-0.9
461.81	6.7
462.244	-4.5
462.678	-10
463.112	3.2
463.545	1.5
463.979	3.2
464.413	8.8
464.846	0.3
465.28	-2.5
465.713	-0.2
466.147	-0.4
466.58	-3
467.014	-0.8
467.447	8.4
467.88	1.1
468.313	8
468.746	8.1
469.179	-5.7
469.612	0.9
470.045	0.3
470.478	5.5
470.911	-2
471.344	8.5
471.777	3.8
472.209	-0.1
472.642	1.7
473.074	5.7
473.507	9.7
473.939	0.7
474.372	5.9
474.804	8.1
475.236	2.1
475.669	19.4
476.101	20.3
476.533	2.9
476.965	5.2
477.397	7.8
477.829	18.5
478.261	0.3
478.693	15.1
479.125	5.9
479.557	15.1
479.988	5
480.42	7.9
480.852	16.2
481.283	3.1
481.715	6.4
482.146	9.5
482.577	2.7
483.009	9.4
483.44	14.2
483.871	5.7
484.302	4.4
484.734	10.1
485.165	8.5
485.596	5.6
486.027	10.2
486.457	11.2
486.888	10.8
487.319	4.7
487.75	4.9
488.181	13.6
488.611	-2.3
489.042	9.9
489.472	5
489.903	0.7
490.333	1
490.764	5.1
491.194	3.4
491.624	17.5
492.054	0.3
492.484	9.8
492.915	4.3
493.345	13.9
493.775	2.3
494.204	10.1
494.634	1.8
495.064	7.6
495.494	-1.8
495.924	0.8
496.353	2.6
496.783	0.7
497.212	5.9
497.642	1.7
498.071	0.1
498.501	-3.3
498.93	-2.9
499.359	1.1
499.789	-0.5
500.218	4.5
500.647	5.2
501.076	0
501.505	3.2
501.934	7.8
502.363	1.6
502.792	-8.5
503.221	-0.5
503.649	-1.6
504.078	3.6
504.507	1.8
504.935	0.5
505.364	14.2
505.792	9.3
506.221	2.2
506.649	8.2
507.077	-0.3
507.506	-6.9
507.934	-3.4
508.362	10.5
508.79	7.1
509.218	-9.6
509.646	9.8
510.074	11.3
510.502	-6.7
510.93	-2.5
511.357	1.9
511.785	-1.3
512.213	4.2
512.64	0.3
513.068	6
513.496	6.4
513.923	7.9
514.35	-0.4
514.778	-2.1
515.205	-2.8
515.632	2.4
516.059	7.3
516.486	4
516.914	-9
517.341	5.1
517.768	-0.9
518.194	-4.8
518.621	-6.2
519.048	-2.2
519.475	-1.6
519.902	1.3
520.328	6.7
520.755	-4
521.181	-0.4
521.608	-3.1
522.034	-1.5
522.461	-3.7
522.887	-4.7
523.313	-4.3
523.739	-7.5
524.165	18.1
524.592	0
525.018	3.8
525.444	-4.1
525.869	1.2
526.295	2.1
526.721	9.7
527.147	1.7
527.573	7.2
527.998	4.5
528.424	10.1
528.849	2.4
529.275	16.7
529.7	9.7
530.126	3.2
530.551	0.3
530.976	7.3
531.402	-1.1
531.827	12
532.252	8.5
532.677	4.1
533.102	8.6
533.527	4.5
533.952	6.8
534.377	-2.7
534.801	0
535.226	-3.7
535.651	-0.9
536.076	-4.2
536.5	3.1
536.925	4
537.349	7.5
537.773	-2.6
538.198	1.5
538.622	-10.3
539.046	0.3
539.471	5.3
539.895	4.7
540.319	2.5
540.743	10.5
541.167	4.1
541.591	-8.5
542.015	5.1
542.438	-2.8
542.862	5.3
543.286	4.3
543.71	11.8
544.133	6.9
544.557	-5
544.98	-0.4
545.404	0.6
545.827	-3.4
546.25	7.8
546.674	3.8
547.097	6.3
547.52	5.1
547.943	-7.3
548.366	5
548.789	5.3
549.212	0
549.635	0
550.058	4.1
550.481	0
550.903	0.2
551.326	-2
551.749	1.2
552.171	-1.1
552.594	0.5
553.016	-2.1
553.438	0.3
553.861	-0.1
554.283	3.9
554.705	1
555.128	-5.5
555.55	8.5
555.972	-3.1
556.394	-0.4
556.816	2.3
557.238	1.8
557.659	6.7
558.081	6
558.503	-6.8
558.925	8
559.346	2.9
559.768	-1
560.189	-3.6
560.611	10.2
561.032	-0.8
561.454	-1.5
561.875	2.2
562.296	7.2
562.718	5.4
563.139	-2.3
563.56	2.2
563.981	9.5
564.402	3.4
564.823	6.5
565.244	1.9
565.664	5.1
566.085	3.4
566.506	-0.1
566.927	-0.4
567.347	0.2
567.768	1.7
568.188	6.1
568.609	-4.4
569.029	1.3
569.449	0.6
569.87	-9.4
570.29	4.4
570.71	1.6
571.13	4.4
571.55	-4.1
571.97	13.3
572.39	5.2
572.81	6.3
573.23	4.1
573.65	-5.2
574.069	-3.1
574.489	0.7
574.909	-1.2
575.328	3.1
575.748	-7
576.167	-3.6
576.587	-5.2
577.006	9.7
577.425	-4.2
577.844	3.7
578.264	3.3
578.683	-7.4
579.102	2.1
579.521	3.9
579.94	4.2
580.359	6.4
580.778	-1.9
581.196	-5.1
581.615	-8.1
582.034	-10.8
582.452	-6.5
582.871	-8
583.29	-3.4
583.708	2.2
584.126	4.2
584.545	-0.8
584.963	-0.7
585.381	-3.8
585.8	0.2
586.218	7.3
586.636	6.7
587.054	1.5
587.472	7.3
587.89	2.2
588.308	-8.8
588.725	0.4
589.143	9
589.561	2.3
589.979	3.7
590.396	5.8
590.814	6.5
591.231	9.9
591.649	3.1
592.066	3.5
592.483	-6.7
592.901	11.8
593.318	5.2
593.735	6.1
594.152	4.3
594.569	1.6
594.986	-11.8
595.403	5.7
595.82	10.3
596.237	4.6
596.654	5.9
597.07	-10.9
597.487	7.4
597.904	-0.8
598.32	-2.1
598.737	7.9
599.153	4
599.57	7.3
599.986	-4.5
600.402	4.7
600.818	5.5
601.235	-2.4
601.651	-2.9
602.067	-2.6
602.483	15.9
602.899	-3.7
603.315	3.8
603.73	0.9
604.146	7.5
604.562	-7.2
604.978	-0.3
605.393	7.7
605.809	-4.6
606.224	3.2
606.64	1.9
607.055	1.5
607.471	0.9
607.886	3.5
608.301	-8.5
608.716	-3.4
609.131	-7.4
609.547	6.1
609.962	5.5
610.377	5
610.791	-2.3
611.206	-17.4
611.621	-6.2
612.036	-4.8
612.451	5.2
612.865	-1.6
613.28	9
613.694	0
614.109	6.3
614.523	-0.6
614.938	2.3
615.352	9.5
615.766	4.2
616.18	13.6
616.595	9.2
617.009	6.4
617.423	-1.7
617.837	3.4
618.251	-1
618.664	6.5
619.078	3.1
619.492	1
619.906	0.9
620.319	11.4
620.733	14.4
621.146	-0.3
621.56	11.2
621.973	9.5
622.387	18.6
622.8	22.1
623.213	13.5
623.627	-0.9
624.04	20.9
624.453	14.4
624.866	22.1
625.279	15.5
625.692	11.2
626.105	14.7
626.518	4.8
626.93	10.7
627.343	26.1
627.756	13.4
628.168	17.5
628.581	23.9
628.993	8.5
629.406	16.5
629.818	27.8
630.231	29.9
630.643	23.1
631.055	33.1
631.467	31.2
631.879	26.2
632.291	43.2
632.703	44
633.115	38.9
633.527	41.3
633.939	43.5
634.351	61.4
634.763	68.8
635.174	59.3
635.586	71.2
635.997	80.6
636.409	69
636.82	73.4
637.232	70.8
637.643	76.1
638.054	90.5
638.466	92.7
638.877	93.4
639.288	93.8
639.699	98.9
640.11	102.6
640.521	106.2
640.932	102.6
641.343	96
641.753	110.4
642.164	105.6
642.575	109.7
642.986	113.5
643.396	98.5
643.807	106.2
644.217	120.1
644.627	120.7
645.038	112.9
645.448	118.5
645.858	99.3
646.269	99.3
646.679	104.8
647.089	102
647.499	113.6
647.909	100.9
648.319	100.7
648.728	88.7
649.138	84.1
649.548	99.9
649.958	85.7
650.367	78.3
650.777	76.7
651.186	62.4
651.596	81
652.005	66.6
652.415	66.3
652.824	71.5
653.233	70.6
653.642	70.9
654.052	66.5
654.461	67.6
654.87	64.9
655.279	67.3
655.688	57.7
656.096	65.8
656.505	76.6
656.914	66.7
657.323	68.2
657.731	69.6
658.14	57.3
658.548	59.4
658.957	64.5
659.365	55.4
659.774	63.4
660.182	60.9
660.59	58.9
660.998	63.2
661.407	54.2
661.815	54.6
662.223	49.5
662.631	58.7
663.039	53.5
663.446	50.9
663.854	37
664.262	40.7
664.67	38.3
665.077	49.9
665.485	40.5
665.892	50.2
666.3	25.3
666.707	49.9
667.115	37.6
667.522	27.4
667.929	43.6
668.337	26.2
668.744	29.5
669.151	26.7
669.558	28.2
669.965	25.3
670.372	24.8
670.779	13.2
671.185	23.6
671.592	26.5
671.999	18.5
672.405	17
672.812	13.5
673.219	21
673.625	18.8
674.032	11.3
674.438	5.5
674.844	10.1
675.25	11.4
675.657	5.8
676.063	7.7
676.469	-0.9
676.875	5.5
677.281	15
677.687	8
678.093	11.6
678.499	3.5
678.904	-4
679.31	4.1
679.716	15.3
680.121	0.5
680.527	4.2
680.932	4.8
681.338	-1.6
681.743	2.5
682.148	5
682.554	-1.7
682.959	3.6
683.364	2.4
683.769	16.4
684.174	-3.1
684.579	-0.4
684.984	6.9
685.389	-2
685.794	-5.7
686.199	-2
686.603	-4.6
687.008	-3.4
687.413	6.6
687.817	4.5
688.222	-8.7
688.626	2.5
689.03	-0.5
689.435	2.8
689.839	-9.1
690.243	-0.4
690.647	4.4
691.051	10.9
691.456	2.2
691.859	-4.3
692.263	-3.6
692.667	5.2
693.071	-2.9
693.475	-1.5
693.879	2.3
694.282	5.9
694.686	-4.7
695.089	4.6
695.493	5.5
695.896	-0.7
696.3	-0.8
696.703	1.2
697.106	-0.9
697.509	-0.3
697.913	-3.5
698.316	11.6
698.719	3.5
699.122	-3.8
699.525	-0.6
699.928	-1.2
700.33	12.7
700.733	-3.6
701.136	7
701.539	-2.4
701.941	-6.4
702.344	-3.8
702.746	-5.9
703.149	-4.4
703.551	-5.2
703.953	-6.8
704.356	2
704.758	1
705.16	3.4
705.562	3.9
705.964	13.2
706.366	-2.5
706.768	0.5
707.17	-5.3
707.572	4.1
707.973	-11.2
708.375	0.7
708.777	-7.5
709.178	11
709.58	-3.5
709.981	-0.4
710.383	-8.1
710.784	-10.2
711.186	-4.5
711.587	-0.4
711.988	-2.2
712.389	-4.3
712.79	-1.7
713.191	-0.1
713.592	-3.4
713.993	-7.1
714.394	-0.3
714.795	-3
715.196	1.3
715.596	-5.3
715.997	-0.5
716.398	-7
716.798	-2.2
717.199	3.2
717.599	12.4
718	-3.8
718.4	3.1
718.8	1.6
719.2	1.3
719.6	1.7
720.001	-0.4
720.401	-3.2
720.801	-15.9
721.201	0.3
721.6	2.1
722	-1.3
722.4	5.2
722.8	-0.7
723.199	-3.9
723.599	-12.4
723.998	-3
724.398	-3.9
724.797	-4.3
725.197	-10.9
725.596	0.1
725.995	2.2
726.394	-3.8
726.794	6
727.193	5
727.592	1.3
727.991	-2.2
728.39	3.1
728.789	-11
729.187	-3
729.586	6.1
729.985	-7.8
730.383	-4.3
730.782	10.1
731.181	1.1
731.579	7.3
731.977	-2.7
732.376	0.6
732.774	0.9
733.172	0
733.571	-2.3
733.969	-0.9
734.367	3.1
734.765	4.9
735.163	0
735.561	7.1
735.959	17.6
736.356	3.4
736.754	16.1
737.152	8.6
737.55	6
737.947	11.2
738.345	6.6
738.742	17.1
739.14	19.1
739.537	20.4
739.934	15
740.331	16.7
740.729	16.3
741.126	25.7
741.523	15.1
741.92	15.9
742.317	26.4
742.714	19.9
743.111	26.4
743.507	16.5
743.904	16.1
744.301	24.8
744.697	18.7
745.094	20.1
745.491	27.9
745.887	34.4
746.283	34.3
746.68	16.8
747.076	24.9
747.472	22.3
747.869	26.3
748.265	34.2
748.661	12.9
749.057	23.2
749.453	26.8
749.849	30.2
750.244	23.6
750.64	33.7
751.036	23.8
751.432	14.2
751.827	23.7
752.223	20.1
752.618	34.5
753.014	26
753.409	25.1
753.805	31.2
754.2	17
754.595	22.7
754.99	23.5
755.385	31.1
755.78	29.9
756.175	30.8
756.57	30.3
756.965	25.4
757.36	22.9
757.755	34.8
758.15	39.4
758.544	28.9
758.939	41.6
759.334	34.8
759.728	41.5
760.122	47.3
760.517	43.7
760.911	52.6
761.306	43.5
761.7	43.5
762.094	40.2
762.488	42.6
762.882	34.5
763.276	35.8
763.67	38.9
764.064	45.9
764.458	46.2
764.852	46.7
765.245	47.8
765.639	54.2
766.033	55.1
766.426	50.4
766.82	61.3
767.213	64.4
767.606	62.3
768	54.9
768.393	63.3
768.786	51.1
769.179	57.4
769.572	55.8
769.966	62.3
770.358	54.5
770.751	57.7
771.144	67.1
771.537	66.6
771.93	60.2
772.323	66.5
772.715	62.7
773.108	65.7
773.5	61.2
773.893	63.8
774.285	58.5
774.678	48.2
775.07	57.8
775.462	49.5
775.854	49
776.247	38.9
776.639	42.1
777.031	38.3
777.423	41.7
777.815	39.1
778.207	37.5
778.598	51.5
778.99	45.6
779.382	51
779.773	53.6
780.165	57.6
780.557	71.2
780.948	58.5
781.339	66.6
781.731	63.3
782.122	80.5
782.513	73.7
782.905	73.4
783.296	62.6
783.687	69.3
784.078	59.3
784.469	65.3
784.86	60.5
785.251	64.8
785.641	64.5
786.032	58.9
786.423	57.3
786.813	68.6
787.204	57.2
787.594	49.1
787.985	49.6
788.375	56.7
788.766	56.1
789.156	40.9
789.546	43
789.936	35
790.326	43.7
790.717	33.5
791.107	34.4
791.497	38.9
791.886	31.9
792.276	33.2
792.666	25.2
793.056	27.8
793.445	24.4
793.835	25.7
794.225	25.3
794.614	27.4
795.004	30.7
795.393	16.5
795.782	16.5
796.172	18.5
796.561	21.5
796.95	19.2
797.339	15.2
797.728	18.8
798.117	24.9
798.506	19.8
798.895	14.9
799.284	22.8
799.673	17.6
800.061	19.6
800.45	15.4
800.839	15.8
801.227	21
801.616	14.8
802.004	16.2
802.392	3.3
802.781	19.6
803.169	5.6
803.557	7.2
803.945	9.7
804.333	20.1
804.721	0.2
805.109	10.6
805.497	15.7
805.885	6.2
806.273	12.3
806.661	5.2
807.048	7.4
807.436	9.5
807.824	7.7
808.211	-5
808.599	6.5
808.986	11
809.373	6.7
809.761	12.5
810.148	1.9
810.535	-3.3
810.922	-8.5
811.309	7.6
811.696	0.4
812.083	6.7
812.47	1.7
812.857	-1.8
813.244	-3.5
813.631	1.7
814.017	1.9
814.404	7.3
814.791	-0.8
815.177	9
815.564	1
815.95	3.6
816.336	8.3
816.723	0.5
817.109	-8.9
817.495	-1.6
817.881	9.5
818.267	-3.8
818.653	-8.1
819.039	0.6
819.425	-5.5
819.811	0.3
820.197	-0.5
820.582	9.4
820.968	5.3
821.354	2.8
821.739	0.5
822.125	3.9
822.51	6.4
822.895	0
823.281	-0.7
823.666	4.2
824.051	1.4
824.436	1.5
824.822	-10.2
825.207	0.1
825.592	2.4
825.976	-10.7
826.361	0.4
826.746	-5
827.131	-1.6
827.516	-2.9
827.9	2.3
828.285	-0.9
828.669	-5.9
829.054	0.2
829.438	-1
829.823	-1.4
830.207	-0.5
830.591	-1.9
830.975	0.3
831.36	-0.4
831.744	-7.6
832.128	-7.3
832.512	-1.5
832.895	-9.1
833.279	-2.6
833.663	-6.1
834.047	9.5
834.431	-2.8
834.814	-12
835.198	-1.4
835.581	-3.1
835.965	-3.6
836.348	-9.6
836.731	-1.4
837.115	-8.5
837.498	-2.1
837.881	0.4
838.264	-0.2
838.647	8.3
839.03	8.1
839.413	-10.5
839.796	2.5
840.179	1.6
840.562	-3
840.944	-5.2
841.327	-8.8
841.71	-5.8
842.092	3.2
842.475	-1.1
842.857	-14.8
843.24	-6
843.622	-2.2
844.004	-1
844.386	3.1
844.769	4.5
845.151	3
845.533	-0.2
845.915	4.8
846.297	-6
846.678	2.1
847.06	-0.1
847.442	-4.2
847.824	-6.4
848.205	-2.7
848.587	5.5
848.968	-1.7
849.35	4.2
849.731	0.5
850.113	2.5
850.494	-7.8
850.875	-8.6
851.256	-1.9
851.638	-11.6
852.019	-9.1
852.4	-0.7
852.781	-11.8
853.161	-3
853.542	-4.9
853.923	4.7
854.304	-0.6
854.685	7.1
855.065	12.4
855.446	-7.1
855.826	-5.4
856.207	-0.3
856.587	3.3
856.967	1.7
857.348	-9.3
857.728	2.3
858.108	-0.5
858.488	-1.5
858.868	5.3
859.248	0.4
859.628	-10.3
860.008	-5.4
860.388	-0.9
860.768	0.4
861.147	4.1
861.527	1.1
861.907	3.4
862.286	-3.8
862.666	-4.3
863.045	-2.6
863.424	2.1
863.804	3.2
864.183	-5
864.562	0.9
864.941	-6.6
865.32	0.9
865.699	0.4
866.078	0.2
866.457	-6.4
866.836	-7.3
867.215	-8.4
867.594	-7.5
867.972	1.6
868.351	-3
868.729	0
869.108	6.2
869.486	-12.2
869.865	-4.2
870.243	3.4
870.621	-6.1
871	-1
871.378	-4.6
871.756	0.4
872.134	-1.3
872.512	-1.8
872.89	-0.1
873.268	-5
873.646	-8.8
874.023	6.8
874.401	3.4
874.779	-0.4
875.156	3.1
875.534	0.5
875.911	-3.6
876.289	-4.8
876.666	-1
877.043	1.8
877.421	-5.3
877.798	11.4
878.175	-9
878.552	3.3
878.929	-4.1
879.306	-2.9
879.683	0.2
880.06	0.6
880.437	-4.3
880.813	0.2
881.19	10.7
881.567	8.5
881.943	-13.6
882.32	-5.1
882.696	-5.5
883.073	1.3
883.449	-0.7
883.825	-2.7
884.202	4.2
884.578	1
884.954	-2.7
885.33	-3.2
885.706	3.4
886.082	1.6
886.458	0.9
886.834	-12.3
887.209	3
887.585	-6.9
887.961	-9.4
888.336	6.1
888.712	-0.6
889.087	-2.3
889.463	-5.9
889.838	-8.4
890.213	-0.9
890.589	0.1
890.964	-0.5
891.339	-2.5
891.714	-7.6
892.089	0.1
892.464	-3.5
892.839	0.5
893.214	-9.3
893.589	-3.7
893.963	0.4
894.338	-4.7
894.713	4.2
895.087	-1.5
895.462	-3
895.836	1.7
896.211	-3.1
896.585	-0.7
896.959	0
897.334	-2.4
897.708	0.3
898.082	1.1
898.456	-9.9
898.83	-2.7
899.204	7.1
899.578	1.6
899.952	4.6
900.325	2.2
900.699	6.4
901.073	-2.6
901.446	3.2
901.82	8.8
902.193	-3.8
902.567	-0.6
902.94	-3
903.313	-2.2
903.687	0.1
904.06	9.2
904.433	1.3
904.806	1.4
905.179	-5.9
905.552	-4.2
905.925	6.3
906.298	7.8
906.671	3.7
907.043	7.2
907.416	-0.2
907.789	16.7
908.161	2.6
908.534	8.1
908.906	-9.2
909.279	2.7
909.651	-7.5
910.023	-2.2
910.396	6.3
910.768	3.3
911.14	0
911.512	3.8
911.884	-10.7
912.256	0.7
912.628	-2.7
912.999	3.2
913.371	-10
913.743	-11.1
914.115	0.4
914.486	-9.9
914.858	-1
915.229	-1.6
915.601	-4.5
915.972	1.8
916.343	3.5
916.715	-6.5
917.086	-3.6
917.457	0
917.828	0
918.199	-8.3
918.57	2.5
918.941	-3.9
919.312	9.3
919.682	-0.3
920.053	-0.5
920.424	2.7
920.794	-1.8
921.165	5.3
921.536	3.8
921.906	1.4
922.276	3.8
922.647	-0.4
923.017	-3.2
923.387	1
923.757	0.8
924.127	-0.5
924.497	4.4
924.867	-2.1
925.237	13.1
925.607	5.1
925.977	9.7
926.347	0.3
926.716	2
927.086	13.1
927.456	-0.1
927.825	2.2
928.195	2.7
928.564	4.6
928.933	6.1
929.303	-5.2
929.672	1.2
930.041	1.6
930.41	12.1
930.779	2.2
931.148	8
931.517	2.1
931.886	-4
932.255	6.5
932.624	9.3
932.993	-0.7
933.361	3.9
933.73	9.3
934.098	6.7
934.467	9.4
934.835	15.2
935.204	-3.1
935.572	-7.6
935.94	13.3
936.308	5.1
936.677	2.4
937.045	7.1
937.413	8.4
937.781	9.4
938.149	9.5
938.516	-0.6
938.884	10.7
939.252	15.4
939.62	6.3
939.987	6.7
940.355	3
940.722	6.6
941.09	9.3
941.457	10.6
941.825	4
942.192	12.1
942.559	-2.6
942.926	5
943.293	0.9
943.66	1.8
944.027	5.4
944.394	17.6
944.761	-3.1
945.128	3.4
945.495	13
945.861	1.8
946.228	2.4
946.595	-1.1
946.961	6.6
947.328	12.6
947.694	14.6
948.06	9.7
948.427	3.4
948.793	-2.1
949.159	10.3
949.525	3
949.891	5
950.257	0.6
950.623	0.7
950.989	15.6
951.355	4.7
951.721	5.2
952.087	0.8
952.452	2.1
952.818	2
953.183	3.8
953.549	2.1
953.914	0.9
954.28	3.7
954.645	0.7
955.01	1.8
955.375	-3.4
955.741	10.5
956.106	5.9
956.471	3
956.836	-7.1
957.201	0.3
957.566	1.1
957.93	6.3
958.295	17.4
958.66	4.3
959.024	5.9
959.389	1.2
959.753	4.2
960.118	13.7
960.482	7
960.847	1.3
961.211	4.1
961.575	0.9
961.939	-2.8
962.303	-2.2
962.667	5.1
963.031	12.8
963.395	-7
963.759	3.9
964.123	0.6
964.487	-5.3
964.851	4.7
965.214	12.9
965.578	-2
965.941	-9.4
966.305	-7.3
966.668	-7.6
967.032	4.7
967.395	4.2
967.758	9.6
968.121	0.3
968.484	3.3
968.847	2
969.21	6.5
969.573	5.4
969.936	3.5
970.299	5.1
970.662	3
971.025	-4.6
971.387	-5.1
971.75	1.5
972.112	9.5
972.475	4.2
972.837	13.7
973.2	-2.7
973.562	10.9
973.924	0.7
974.286	3.4
974.649	-6
975.011	1.8
975.373	-9.7
975.735	-3.8
976.097	4.2
976.458	5.6
976.82	-18.3
977.182	8.1
977.544	-1.3
977.905	1.1
978.267	0.9
978.628	4
978.99	6.3
979.351	-3.4
979.712	-4
980.074	-5.6
980.435	3.4
980.796	6
981.157	-4.2
981.518	3.3
981.879	-3.9
982.24	1.1
982.601	-0.5
982.962	-2.5
983.323	-1.5
983.683	2.1
984.044	11.2
984.404	-11.9
984.765	0.9
985.125	0.8
985.486	8
985.846	2.5
986.206	1.3
986.567	-4.3
986.927	2.3
987.287	0.7
987.647	0.9
988.007	11.1
988.367	-8.8
988.727	0.4
989.087	3.5
989.446	6.1
989.806	-2.4
990.166	-2.9
990.525	5.7
990.885	-15.3
991.244	1
991.604	2.9
991.963	3.3
992.322	-7.1
992.682	-5
993.041	-5.9
993.4	-0.1
993.759	-1.7
994.118	-2.6
994.477	4.3
994.836	-10.2
995.195	-10.8
995.553	1.8
995.912	0
996.271	-8.3
996.629	-6.1
996.988	8.2
997.346	4.7
997.705	-5.5
998.063	0.5
998.422	-7.6
998.78	-3.1
999.138	-0.8
999.496	-4.8
999.854	0.7
1000.212	-8.1
1000.57	-6.7
1000.928	-6.5
1001.286	12
1001.644	-15.3
1002.001	-3.7
1002.359	-1.2
1002.717	7.6
1003.074	-3.7
1003.432	-5.4
1003.789	-5.2
1004.147	4.3
1004.504	-2.5
1004.861	-0.2
1005.218	0
1005.576	-4.8
1005.933	0.2
1006.29	-5.9
1006.647	-3.2
1007.004	4.7
1007.36	4.2
1007.717	-2.7
1008.074	-0.5
1008.431	-2.4
1008.787	4.4
1009.144	7.3
1009.5	-2.5
1009.857	-7.3
1010.213	-4.5
1010.569	6.4
1010.926	1.4
1011.282	-2.1
1011.638	-1.8
1011.994	-4.8
1012.35	1.3
1012.706	-7.4
1013.062	-3.1
1013.418	-6.9
1013.774	-4.8
1014.13	3.4
1014.485	-6.3
1014.841	-2
1015.197	-1.9
1015.552	-4.3
1015.907	5.9
1016.263	0.3
1016.618	2.7
1016.974	0.8
1017.329	7
1017.684	0.2
1018.039	-10.4
1018.394	-6
1018.749	-1
1019.104	1.6
1019.459	3.8
1019.814	4.5
1020.168	-9.8
1020.523	-4.6
1020.878	-11.6
1021.232	-1.7
1021.587	-1.3
1021.941	-7.1
1022.296	-13.1
1022.65	-3
1023.004	-3.8
1023.359	-9.5
1023.713	-8.1
1024.067	-4.4
1024.421	3.7
1024.775	-11.2
1025.129	-7.3
1025.483	-1
1025.837	-4.5
1026.19	-1.3
1026.544	-11.2
1026.898	-12.5
1027.251	3.5
1027.605	0.8
1027.958	-8.5
1028.312	2.9
1028.665	-2.1
1029.018	0.5
1029.372	5.9
1029.725	-8.5
1030.078	-4.4
1030.431	-9.2
1030.784	-0.4
1031.137	0.2
1031.49	7.5
1031.843	-7.6
1032.195	-15.6
1032.548	-8.4
1032.901	-8.8
1033.253	-2.2
1033.606	3.2
1033.958	-0.8
1034.311	-1.7
1034.663	5.1
1035.016	0.1
1035.368	-4.9
1035.72	0.6
1036.072	3.7
1036.424	-0.3
1036.776	-5.9
1037.128	4.2
1037.48	-5
