Data from 0.6bar_Subt2__0__18-25-32-937.txt Node

Date: Thu Jan 06 18:25:32 CET 2022
User: fsatto
Spectrometer: OFX01956
Trigger mode: 0
Integration Time (sec): 1.000000E-2
Scans to average: 10
Nonlinearity correction enabled: false
Boxcar width: 0
Storing dark spectrum: false
XAxis mode: Wavelengths
Number of Pixels in Spectrum: 2136
>>>>>Begin Spectral Data<<<<<
158.236	0.1
158.705	-6
159.174	7.2
159.643	1.3
160.112	-2.8
160.582	-1.2
161.051	-1.1
161.52	-1.7
161.988	-1.3
162.457	-4.2
162.926	-1.9
163.395	-1.4
163.864	8.5
164.332	0.7
164.801	4.4
165.269	5.7
165.738	-0.4
166.206	-0.1
166.675	-4.7
167.143	-2.2
167.612	-3.6
168.08	1.7
168.548	-3.5
169.016	2.7
169.484	6.3
169.952	-2.2
170.42	-8.5
170.888	1.9
171.356	-2.4
171.824	3.4
172.292	-1.9
172.759	-10.4
173.227	-8.8
173.695	-4.5
174.162	-0.2
174.63	5.1
175.097	-9.3
175.565	-2.3
176.032	-9.3
176.499	2.7
176.967	-4
177.434	-1.7
177.901	6.4
178.368	-9
178.835	-1.5
179.302	-0.3
179.769	8.6
180.236	-3.3
180.703	0.1
181.17	0.4
181.637	-0.1
182.103	-7.6
182.57	0
183.036	-2.5
183.503	-1.5
183.97	-0.6
184.436	3.5
184.902	5.3
185.369	-6.3
185.835	2
186.301	7.4
186.767	-1.3
187.234	2.7
187.7	-3
188.166	-3.4
188.632	-2.6
189.098	-8.8
189.563	-2.3
190.029	-5.9
190.495	-6.2
190.961	-2.7
191.426	-3.6
191.892	-1.4
192.358	-0.4
192.823	1.4
193.289	-0.6
193.754	1.6
194.219	-0.8
194.685	-2.3
195.15	-3.6
195.615	0.9
196.08	-1.2
196.545	5.2
197.01	0.3
197.475	3.4
197.94	7.7
198.405	-3.3
198.87	-1
199.335	-3.1
199.8	1.6
200.264	44.5
200.729	52.2
201.193	40.5
201.658	50.3
202.122	38.9
202.587	47.4
203.051	51.8
203.516	46
203.98	45.6
204.444	54.2
204.908	47.6
205.372	48.1
205.836	62.9
206.3	61.6
206.764	69.9
207.228	62.2
207.692	68.9
208.156	73.6
208.62	81.6
209.083	87.7
209.547	99.2
210.011	101.5
210.474	109.2
210.938	125.9
211.401	155.8
211.864	172.4
212.328	200.4
212.791	205.4
213.254	231.3
213.717	272.9
214.181	313.2
214.644	373
215.107	447
215.57	497.4
216.033	565.7
216.495	698.1
216.958	892.6
217.421	982.8
217.884	1142
218.346	1206.7
218.809	1333.8
219.272	1460.3
219.734	1637.6
220.196	1776.5
220.659	1910.9
221.121	1973.7
221.584	2023.5
222.046	2190.5
222.508	2402.7
222.97	2536.4
223.432	2755.1
223.894	2940
224.356	3081.4
224.818	3349.8
225.28	3765.6
225.742	4305.4
226.204	5038.8
226.665	5606.1
227.127	5705.7
227.589	6096.4
228.05	6683.8
228.512	7213.5
228.973	7557.7
229.435	7360.4
229.896	7083.6
230.357	7325.8
230.818	8254.7
231.28	8980.1
231.741	9611.5
232.202	9446
232.663	9008
233.124	9275
233.585	10336.8
234.046	11683
234.507	12241.6
234.967	11736
235.428	11347.8
235.889	11208.1
236.349	11972.5
236.81	13664.1
237.271	14898.2
237.731	14635.2
238.191	13877.3
238.652	13693
239.112	14842.9
239.572	16947.8
240.033	18323
240.493	17433.4
240.953	15603.6
241.413	14915.6
241.873	15865.2
242.333	17373.4
242.793	17697
243.253	16876.9
243.712	16591.7
244.172	16537.3
244.632	17079.6
245.092	18527.1
245.551	19679
246.011	20096.1
246.47	19709.6
246.93	20673
247.389	23232.8
247.848	26324.8
248.308	27411.2
248.767	27570.2
249.226	27252.2
249.685	27533
250.144	28204.8
250.603	30201.2
251.062	31338.2
251.521	30459.7
251.98	28715.7
252.439	27466.6
252.897	27545.6
253.356	28869.5
253.815	30113.8
254.273	29633.2
254.732	28154.6
255.19	24874.2
255.649	22700.3
256.107	22962.7
256.566	23686.2
257.024	25002.5
257.482	24294.4
257.94	22434.1
258.398	22690.3
258.856	23602.3
259.315	23958
259.772	23845.2
260.23	22923.9
260.688	21387.1
261.146	19782.2
261.604	18576.3
262.062	18999.9
262.519	20194.8
262.977	20853
263.434	19388.1
263.892	17789.4
264.349	17274.9
264.807	17424.6
265.264	17336.9
265.721	17059.9
266.179	16802.5
266.636	15553.8
267.093	14186.2
267.55	13905
268.007	14611
268.464	15325.8
268.921	15413.3
269.378	14525.5
269.835	13904.1
270.291	13854.9
270.748	13959.1
271.205	14348.6
271.661	14430.3
272.118	13906.6
272.574	13808.7
273.031	13841.1
273.487	13452.2
273.944	13188.1
274.4	13318.5
274.856	13436.7
275.312	12737.6
275.768	12182.5
276.225	11835.1
276.681	11730.2
277.137	11495.3
277.593	11042.5
278.048	10578.3
278.504	10335.3
278.96	9918.2
279.416	9219.2
279.871	8429.1
280.327	8105.2
280.783	8118.6
281.238	8074.7
281.694	7681.3
282.149	7328.1
282.604	7109.3
283.06	6843.4
283.515	6542.7
283.97	6383.4
284.425	6215.2
284.88	6113.7
285.335	5922
285.79	5434.9
286.245	4967.2
286.7	4929.6
287.155	5081.1
287.61	4929.3
288.064	4845.2
288.519	4882.3
288.974	4766.7
289.428	4417
289.883	4358.1
290.337	4402.2
290.792	4452.9
291.246	4479.1
291.7	4426.4
292.155	4290.1
292.609	4041.9
293.063	3715.4
293.517	3591.4
293.971	3558.2
294.425	3451.2
294.879	3363.6
295.333	3210.2
295.787	2960.6
296.241	2778.7
296.694	2691.2
297.148	2684.2
297.602	2656.7
298.055	2559.5
298.509	2379.1
298.962	2142.1
299.416	2005.8
299.869	1978
300.322	1907.7
300.775	1817.9
301.229	1733.2
301.682	1566
302.135	1440
302.588	1327.5
303.041	1261.7
303.494	1198.5
303.947	1151.4
304.4	1063.3
304.852	985.8
305.305	897.1
305.758	850.7
306.21	756.2
306.663	704.5
307.115	677.8
307.568	692.9
308.02	671.9
308.473	624
308.925	566.6
309.377	524.7
309.829	496.1
310.282	471.7
310.734	468.3
311.186	425
311.638	410
312.09	382
312.542	349.5
312.993	323.8
313.445	302.8
313.897	298.1
314.349	269.3
314.8	259.4
315.252	230.2
315.703	237.2
316.155	212.7
316.606	216.2
317.058	204.6
317.509	196.1
317.96	179.8
318.411	169.6
318.863	168
319.314	158.6
319.765	157.8
320.216	147.1
320.667	122.8
321.117	116.4
321.568	112.7
322.019	107.6
322.47	107.9
322.921	88.1
323.371	82.8
323.822	80.4
324.272	66.1
324.723	68.6
325.173	58.1
325.623	55.8
326.074	45.2
326.524	46.6
326.974	57.2
327.424	72.5
327.874	94.1
328.325	56.9
328.775	43.4
329.224	42.3
329.674	34.7
330.124	40.1
330.574	47.1
331.024	26.6
331.473	31.7
331.923	29.3
332.373	28.4
332.822	29.8
333.272	23.6
333.721	25.5
334.17	13.8
334.62	15.1
335.069	19.3
335.518	12.8
335.967	12.2
336.416	20.2
336.865	19.6
337.314	16.8
337.763	14.4
338.212	12.8
338.661	18.4
339.11	8
339.558	12.8
340.007	13.6
340.456	5.8
340.904	15.1
341.353	13.8
341.801	-5
342.25	4.2
342.698	1.3
343.146	13.8
343.595	7
344.043	3.7
344.491	8.2
344.939	8.7
345.387	8.7
345.835	5.8
346.283	11.2
346.731	9.5
347.179	-6.7
347.626	-3.1
348.074	1.6
348.522	6.2
348.969	8.7
349.417	7.3
349.865	-2.2
350.312	5.2
350.759	-7.9
351.207	-1.2
351.654	-5.8
352.101	-3
352.548	4.5
352.996	1.3
353.443	5.5
353.89	-0.8
354.337	3.2
354.784	-1.1
355.231	-4.6
355.677	-0.4
356.124	5.4
356.571	8.3
357.018	2.1
357.464	0.3
357.911	8
358.357	13
358.804	-1
359.25	12.4
359.696	6.2
360.143	6.5
360.589	9.2
361.035	5.4
361.481	12
361.927	5.1
362.373	9.9
362.819	10.3
363.265	2.1
363.711	2.1
364.157	4.2
364.603	9.4
365.048	-1.2
365.494	0.7
365.94	-4.2
366.385	5.1
366.831	8.4
367.276	10.3
367.722	-0.4
368.167	-6.5
368.612	4.8
369.057	-5.2
369.503	0.2
369.948	0
370.393	4.2
370.838	8.6
371.283	8.1
371.728	-10.8
372.173	2.5
372.617	8.7
373.062	-2.6
373.507	4.6
373.951	-8.1
374.396	6.5
374.841	5.5
375.285	7.6
375.729	-5.3
376.174	-2.4
376.618	-4.2
377.062	4.8
377.507	3.9
377.951	1.1
378.395	0.5
378.839	2.4
379.283	6
379.727	6.1
380.171	-1.6
380.615	10.6
381.059	-0.9
381.502	5.9
381.946	2.1
382.39	-3.9
382.833	4.3
383.277	3.8
383.72	-1.4
384.164	1.5
384.607	0.8
385.05	12
385.494	12.3
385.937	4.6
386.38	8.1
386.823	-1
387.266	1.1
387.709	8.1
388.152	-5.7
388.595	-1.3
389.038	7
389.481	0.4
389.923	0
390.366	2.3
390.809	-3.8
391.251	3.2
391.694	3.5
392.136	8.6
392.579	5
393.021	5
393.463	-1.7
393.906	5.4
394.348	2.7
394.79	15.9
395.232	-3.3
395.674	5.4
396.116	9.3
396.558	2.1
397	4.9
397.442	12.7
397.884	6.7
398.325	4.6
398.767	6.2
399.209	6.9
399.65	2.1
400.092	2.1
400.533	0.9
400.974	-3.7
401.416	-2.2
401.857	3.2
402.298	4.8
402.74	-3
403.181	4.1
403.622	9
404.063	11.5
404.504	1.5
404.945	0.9
405.386	7.4
405.826	4.2
406.267	-1.3
406.708	2
407.149	2.5
407.589	7.3
408.03	8.3
408.47	5.6
408.911	-2.3
409.351	8.6
409.791	6.6
410.232	-2.3
410.672	0.1
411.112	2.6
411.552	5.1
411.992	2.9
412.432	1.5
412.872	2.6
413.312	1.9
413.752	-3.5
414.192	1.6
414.632	-9.3
415.071	-1.9
415.511	7.6
415.951	-2.4
416.39	5.4
416.83	-0.3
417.269	0.2
417.708	6
418.148	-5.6
418.587	0.7
419.026	-0.9
419.465	2.4
419.904	9.2
420.344	2.9
420.783	-3.9
421.221	-0.6
421.66	-5.1
422.099	-3.7
422.538	0.6
422.977	1.2
423.415	1.4
423.854	0.2
424.293	-0.5
424.731	-4
425.17	-3
425.608	7.9
426.046	1.6
426.485	-0.4
426.923	2.9
427.361	3.4
427.799	-1.3
428.237	1.4
428.675	-8.6
429.113	1.2
429.551	-3.7
429.989	0.3
430.427	0.2
430.865	-1.9
431.303	0.1
431.74	5
432.178	-8.2
432.615	-5.8
433.053	-4.5
433.49	4.5
433.928	7.2
434.365	13.6
434.802	7.2
435.24	4.8
435.677	1.1
436.114	-4.3
436.551	16.5
436.988	5.1
437.425	7.3
437.862	-0.4
438.299	-0.5
438.736	-3.1
439.172	8
439.609	-4.9
440.046	-1.2
440.482	1.1
440.919	2.9
441.355	4.5
441.792	6.2
442.228	-2.2
442.665	6.4
443.101	3.6
443.537	1
443.973	11.6
444.409	4.1
444.845	16.2
445.281	8.1
445.717	-3.9
446.153	4.2
446.589	0.7
447.025	8
447.461	9.6
447.896	10.4
448.332	11.5
448.768	5.4
449.203	5.4
449.639	-1
450.074	8.7
450.509	5.1
450.945	8.6
451.38	2.5
451.815	-5.2
452.25	7.1
452.685	-3.3
453.12	2.9
453.555	-9.7
453.99	1.6
454.425	2.9
454.86	6.7
455.295	-1.1
455.73	7.1
456.164	4.5
456.599	12.4
457.033	4.6
457.468	2
457.902	3.7
458.337	14.6
458.771	-0.1
459.205	-6.4
459.64	5.1
460.074	1.7
460.508	6.5
460.942	11.4
461.376	9.7
461.81	1.7
462.244	2.9
462.678	-3.3
463.112	2.6
463.545	6
463.979	1.6
464.413	15.7
464.846	12.8
465.28	6.8
465.713	5.8
466.147	9.7
466.58	15
467.014	0.5
467.447	10.5
467.88	5.2
468.313	10.4
468.746	8.1
469.179	2
469.612	4.4
470.045	1.1
470.478	6
470.911	1.5
471.344	11.2
471.777	2
472.209	5.9
472.642	6
473.074	0.4
473.507	14.5
473.939	0.3
474.372	11.9
474.804	6.3
475.236	15.4
475.669	18.7
476.101	19
476.533	7.6
476.965	16
477.397	13.4
477.829	22.1
478.261	8.9
478.693	14.4
479.125	18
479.557	14.5
479.988	9.2
480.42	6.1
480.852	12.2
481.283	11.3
481.715	9.7
482.146	13.8
482.577	17.1
483.009	6.4
483.44	8
483.871	12.2
484.302	11.5
484.734	15.6
485.165	5.6
485.596	9.9
486.027	15.7
486.457	10
486.888	10
487.319	12.1
487.75	6.5
488.181	13.4
488.611	6.8
489.042	16.7
489.472	9.7
489.903	10.5
490.333	8.3
490.764	9.8
491.194	5.1
491.624	7.1
492.054	-0.2
492.484	9.3
492.915	9.6
493.345	5.3
493.775	10.8
494.204	16.1
494.634	7
495.064	7.9
495.494	6
495.924	-1.8
496.353	-6.3
496.783	3.4
497.212	0.4
497.642	4.2
498.071	1.6
498.501	-0.4
498.93	-0.4
499.359	6.3
499.789	6.2
500.218	8.8
500.647	4.3
501.076	3.3
501.505	8.3
501.934	9
502.363	7.2
502.792	0.2
503.221	1.6
503.649	5.2
504.078	3.3
504.507	11.6
504.935	-7
505.364	13.5
505.792	6.6
506.221	0.1
506.649	-1.1
507.077	7.7
507.506	1.6
507.934	6.4
508.362	2.4
508.79	9.2
509.218	-4.1
509.646	-2.7
510.074	-2.3
510.502	1.9
510.93	-2.5
511.357	4.1
511.785	-2.2
512.213	-0.7
512.64	0.1
513.068	10.2
513.496	0.5
513.923	6.5
514.35	0.9
514.778	-7.2
515.205	-2.3
515.632	7.4
516.059	1.6
516.486	6.2
516.914	-5.3
517.341	-0.2
517.768	-1.8
518.194	-2
518.621	1.4
519.048	5
519.475	1.5
519.902	-1.7
520.328	4.5
520.755	-4
521.181	0.9
521.608	6.6
522.034	-4.4
522.461	10.6
522.887	-4.1
523.313	-0.1
523.739	-5.7
524.165	24.5
524.592	5.8
525.018	-0.6
525.444	2.6
525.869	7.8
526.295	3.4
526.721	-5.2
527.147	2.3
527.573	1.9
527.998	5.9
528.424	-2.7
528.849	3
529.275	6.1
529.7	2.6
530.126	9.8
530.551	-1.2
530.976	6.2
531.402	7.8
531.827	5.3
532.252	7.7
532.677	5.2
533.102	9.8
533.527	0.7
533.952	12.1
534.377	0.9
534.801	-4.2
535.226	2.9
535.651	-0.8
536.076	-2.1
536.5	-5.7
536.925	14
537.349	9.5
537.773	-5.1
538.198	-0.2
538.622	11.1
539.046	-3.2
539.471	6
539.895	3.7
540.319	6.8
540.743	2.7
541.167	2.9
541.591	-3.5
542.015	7.1
542.438	1.3
542.862	2.2
543.286	-0.4
543.71	10.4
544.133	6.5
544.557	-3.3
544.98	-2.4
545.404	6.7
545.827	2.2
546.25	-0.9
546.674	7.3
547.097	-2.7
547.52	7.3
547.943	-1.6
548.366	6.1
548.789	0.9
549.212	2.3
549.635	2.5
550.058	0.9
550.481	1.1
550.903	3.1
551.326	4.5
551.749	1.5
552.171	8
552.594	4.8
553.016	-2.9
553.438	17.5
553.861	10.2
554.283	1.5
554.705	1.3
555.128	-2.3
555.55	10.1
555.972	2.9
556.394	1.5
556.816	6.3
557.238	-1.6
557.659	7.7
558.081	5.7
558.503	0.8
558.925	7.6
559.346	1.3
559.768	5.8
560.189	1
560.611	9.2
561.032	1.3
561.454	-3.4
561.875	4.8
562.296	11.5
562.718	9.6
563.139	2.5
563.56	-5.5
563.981	10
564.402	9
564.823	8.6
565.244	7.3
565.664	6
566.085	15.2
566.506	-2.2
566.927	2.9
567.347	2.1
567.768	7
568.188	1.5
568.609	-2.2
569.029	3.4
569.449	0.5
569.87	2.3
570.29	3.9
570.71	-3.5
571.13	1
571.55	-4.1
571.97	5.8
572.39	3.8
572.81	1.9
573.23	0.5
573.65	8
574.069	-9.1
574.489	-5.7
574.909	3.1
575.328	0.3
575.748	4
576.167	1.9
576.587	3.8
577.006	10.8
577.425	-2.1
577.844	7.1
578.264	1.8
578.683	-3.5
579.102	4.2
579.521	3.2
579.94	3.5
580.359	-1.4
580.778	0.1
581.196	1.3
581.615	-2
582.034	-5.2
582.452	-8.5
582.871	1
583.29	0.9
583.708	5.7
584.126	7
584.545	-2.3
584.963	-6.3
585.381	-3.4
585.8	-9.1
586.218	2.7
586.636	5.6
587.054	2.4
587.472	-9.3
587.89	0
588.308	-5.9
588.725	-4.5
589.143	5.5
589.561	-1.3
589.979	1.3
590.396	0.3
590.814	5.1
591.231	4.6
591.649	-2.5
592.066	1.3
592.483	-5.4
592.901	6.5
593.318	4.3
593.735	-4.5
594.152	7
594.569	-1.1
594.986	-1.9
595.403	9
595.82	5
596.237	7.2
596.654	2.4
597.07	0.1
597.487	1.4
597.904	1.2
598.32	-4.6
598.737	-0.8
599.153	4.5
599.57	10
599.986	2.1
600.402	13.2
600.818	5.7
601.235	-0.6
601.651	8.2
602.067	-5.2
602.483	6.4
602.899	-1.8
603.315	1.4
603.73	6.2
604.146	2.9
604.562	-4.8
604.978	-2.4
605.393	6
605.809	-3.9
606.224	2.6
606.64	5.2
607.055	2.4
607.471	-13.7
607.886	11.3
608.301	1.6
608.716	-7
609.131	5.5
609.547	6.3
609.962	5.1
610.377	8.9
610.791	2.7
611.206	-5.2
611.621	-3.9
612.036	5.1
612.451	8
612.865	-7.2
613.28	-3.3
613.694	3.4
614.109	-2.1
614.523	2
614.938	6.5
615.352	12.5
615.766	-2.3
616.18	14.8
616.595	9
617.009	4.4
617.423	2.2
617.837	9.7
618.251	11.1
618.664	2.7
619.078	8.5
619.492	2.6
619.906	-1.3
620.319	14
620.733	9.1
621.146	4.4
621.56	4.2
621.973	7.3
622.387	13.5
622.8	8
623.213	16.7
623.627	6.2
624.04	21.2
624.453	17.8
624.866	21.1
625.279	17.3
625.692	10.6
626.105	14.1
626.518	17.6
626.93	13.6
627.343	21.6
627.756	14.7
628.168	21.1
628.581	16.3
628.993	12.4
629.406	14.4
629.818	27
630.231	13.7
630.643	18.3
631.055	27.9
631.467	34.5
631.879	31.1
632.291	41.4
632.703	43.6
633.115	39
633.527	44.3
633.939	48.7
634.351	63.5
634.763	67.9
635.174	63.2
635.586	75.4
635.997	69.5
636.409	73.7
636.82	76.7
637.232	82.7
637.643	80.8
638.054	89.6
638.466	97
638.877	93.9
639.288	99
639.699	96.9
640.11	97.5
640.521	109.8
640.932	107.6
641.343	85.8
641.753	110.7
642.164	111.1
642.575	121.3
642.986	114.6
643.396	107.6
643.807	117.7
644.217	120.9
644.627	120.7
645.038	113.1
645.448	120.6
645.858	100.4
646.269	109.4
646.679	108.1
647.089	103
647.499	110.5
647.909	101.2
648.319	115.2
648.728	78
649.138	84.4
649.548	100.7
649.958	92.9
650.367	86.5
650.777	79.3
651.186	76.7
651.596	66.9
652.005	79
652.415	65.3
652.824	64.5
653.233	67.5
653.642	77.6
654.052	66.4
654.461	78.8
654.87	63.8
655.279	68.3
655.688	69
656.096	60.7
656.505	77.5
656.914	77.2
657.323	67.2
657.731	70.4
658.14	62.3
658.548	61.9
658.957	67.5
659.365	49.9
659.774	58.7
660.182	52.1
660.59	57.7
660.998	65.3
661.407	57.6
661.815	58.1
662.223	59.1
662.631	52.5
663.039	56.7
663.446	51.2
663.854	50.2
664.262	42.7
664.67	44.8
665.077	48.6
665.485	43.1
665.892	43.6
666.3	39.9
666.707	51.5
667.115	39.3
667.522	30.1
667.929	41.5
668.337	31.2
668.744	21.9
669.151	29.7
669.558	31.8
669.965	27.1
670.372	19.9
670.779	15.6
671.185	26.2
671.592	23.3
671.999	22.3
672.405	19
672.812	19.7
673.219	10.7
673.625	11.1
674.032	15.1
674.438	4.7
674.844	13.5
675.25	10.6
675.657	5.5
676.063	10.7
676.469	1.2
676.875	11.2
677.281	5.3
677.687	16
678.093	1.9
678.499	4.7
678.904	4.6
679.31	2.2
679.716	13.2
680.121	2.6
680.527	5.1
680.932	-2.1
681.338	-1.1
681.743	9.3
682.148	-3.5
682.554	1.6
682.959	0.6
683.364	-0.5
683.769	21
684.174	-6.6
684.579	2.2
684.984	-1.3
685.389	4.3
685.794	-0.1
686.199	-2.7
686.603	-6
687.008	-8.6
687.413	2.3
687.817	5.3
688.222	-12.1
688.626	1.9
689.03	1.6
689.435	7.7
689.839	-0.5
690.243	-2.2
690.647	6.9
691.051	6.8
691.456	0.8
691.859	0.8
692.263	4
692.667	6.2
693.071	-6.5
693.475	1.2
693.879	-1.4
694.282	2.6
694.686	-1.2
695.089	11.3
695.493	10.2
695.896	-0.8
696.3	4.3
696.703	5.2
697.106	-2.4
697.509	3.1
697.913	3.8
698.316	-1.6
698.719	7.2
699.122	5.2
699.525	4.1
699.928	-0.4
700.33	2.4
700.733	-0.9
701.136	4.9
701.539	-1.1
701.941	-2.5
702.344	-1.6
702.746	7
703.149	0.2
703.551	1.7
703.953	0.6
704.356	-3.3
704.758	-0.7
705.16	10.7
705.562	5.5
705.964	10.1
706.366	-2.1
706.768	3.8
707.17	0.4
707.572	4.6
707.973	-3.6
708.375	0.1
708.777	-2.3
709.178	3.9
709.58	-7.2
709.981	2.6
710.383	0.9
710.784	3.8
711.186	0.5
711.587	-8
711.988	6.7
712.389	5.8
712.79	0.1
713.191	-9
713.592	-3.3
713.993	-3.8
714.394	2.3
714.795	4.7
715.196	7.2
715.596	-12.3
715.997	1.8
716.398	3.6
716.798	-2.4
717.199	10.8
717.599	2.7
718	2.6
718.4	3.6
718.8	0
719.2	2.3
719.6	0.3
720.001	-0.9
720.401	0.3
720.801	-12.1
721.201	1.4
721.6	0.8
722	5
722.4	3.3
722.8	0
723.199	5.5
723.599	-8
723.998	-2.1
724.398	-16.1
724.797	0.4
725.197	-2.3
725.596	1.2
725.995	-3
726.394	-6.7
726.794	3.7
727.193	2.6
727.592	4.2
727.991	-3.9
728.39	-3.2
728.789	-12
729.187	-1.1
729.586	9.8
729.985	-1
730.383	7.3
730.782	12.4
731.181	4.8
731.579	4.3
731.977	-0.7
732.376	-5
732.774	-3.5
733.172	10.7
733.571	6
733.969	-7.7
734.367	6.4
734.765	8.3
735.163	-2
735.561	10.5
735.959	20.6
736.356	5
736.754	8.4
737.152	8.3
737.55	8.3
737.947	7.4
738.345	14.4
738.742	20.4
739.14	17.8
739.537	14.4
739.934	13.8
740.331	17.5
740.729	22.3
741.126	24.5
741.523	15.1
741.92	19.6
742.317	18.2
742.714	12.5
743.111	23.7
743.507	22.9
743.904	9.9
744.301	20.2
744.697	18.3
745.094	22.5
745.491	17.5
745.887	30.5
746.283	22.7
746.68	18.8
747.076	18.9
747.472	29.5
747.869	18.2
748.265	33.7
748.661	15.4
749.057	18.5
749.453	16.5
749.849	23.8
750.244	22.2
750.64	24.3
751.036	16.5
751.432	21.7
751.827	20
752.223	23.4
752.618	27.5
753.014	32.5
753.409	25.4
753.805	25.5
754.2	16
754.595	24.2
754.99	23.4
755.385	27.4
755.78	27.4
756.175	28.3
756.57	28.6
756.965	26.3
757.36	20.5
757.755	24.9
758.15	28.7
758.544	30.3
758.939	45.9
759.334	38.9
759.728	27.2
760.122	42.7
760.517	42.6
760.911	41.4
761.306	37.5
761.7	44.7
762.094	33.8
762.488	40.3
762.882	38.4
763.276	35.7
763.67	30.3
764.064	45.2
764.458	47.8
764.852	41.1
765.245	47.3
765.639	48.3
766.033	45.6
766.426	50.4
766.82	53.6
767.213	58.3
767.606	63
768	48.6
768.393	64.5
768.786	51.7
769.179	52
769.572	71.1
769.966	59.4
770.358	53.8
770.751	52.5
771.144	72.1
771.537	64.4
771.93	71.2
772.323	58.8
772.715	66
773.108	58.5
773.5	60.8
773.893	54.5
774.285	58.1
774.678	50.3
775.07	55.9
775.462	53
775.854	35.8
776.247	45.8
776.639	45.8
777.031	36.7
777.423	43.3
777.815	35.8
778.207	41.3
778.598	42.3
778.99	38.1
779.382	53.6
779.773	59.6
780.165	48.7
780.557	61.1
780.948	58.5
781.339	64.8
781.731	65.8
782.122	71.2
782.513	67.7
782.905	70.9
783.296	65.2
783.687	62.8
784.078	54.2
784.469	63.2
784.86	61.1
785.251	71.3
785.641	59
786.032	56.2
786.423	55
786.813	65.2
787.204	65.6
787.594	55.4
787.985	45.8
788.375	63
788.766	54.1
789.156	35.4
789.546	33.5
789.936	45.7
790.326	36.7
790.717	39
791.107	38.2
791.497	28.5
791.886	27
792.276	26.4
792.666	31.5
793.056	20.4
793.445	24.4
793.835	18.9
794.225	23.2
794.614	18.5
795.004	30.3
795.393	19.9
795.782	21.6
796.172	18.9
796.561	24.4
796.95	15.8
797.339	17.9
797.728	20.5
798.117	11.5
798.506	25.8
798.895	18.6
799.284	28.9
799.673	15.6
800.061	19.7
800.45	13.9
800.839	16.6
801.227	17.2
801.616	15.4
802.004	8.2
802.392	15.6
802.781	22.2
803.169	9.8
803.557	14.8
803.945	12.3
804.333	9.5
804.721	2.4
805.109	16.6
805.497	8.8
805.885	-0.6
806.273	1.9
806.661	9.4
807.048	7
807.436	10.2
807.824	7.7
808.211	-7.2
808.599	3.3
808.986	16.6
809.373	5.1
809.761	5.7
810.148	10.1
810.535	-7.3
810.922	-6.2
811.309	4.9
811.696	-2.8
812.083	-5.9
812.47	-6.6
812.857	5
813.244	3
813.631	7.7
814.017	0.2
814.404	8.4
814.791	6.9
815.177	6.3
815.564	1.8
815.95	7.8
816.336	8.3
816.723	7.7
817.109	-8.1
817.495	-3.8
817.881	12.6
818.267	-0.8
818.653	-9.8
819.039	0.2
819.425	-0.2
819.811	1.5
820.197	5.8
820.582	2.2
820.968	5.8
821.354	4
821.739	-6.4
822.125	-4.4
822.51	3.7
822.895	2.1
823.281	0.8
823.666	4.3
824.051	5.5
824.436	-7.3
824.822	-2.7
825.207	-2.2
825.592	7.7
825.976	-6.1
826.361	1.1
826.746	-1.5
827.131	-1.6
827.516	2.1
827.9	8.6
828.285	-1.4
828.669	-2.8
829.054	-2.5
829.438	7.7
829.823	2.6
830.207	1.8
830.591	-2.3
830.975	2.5
831.36	-7.5
831.744	-4.3
832.128	-6.4
832.512	4.3
832.895	-3.5
833.279	1
833.663	-0.1
834.047	3.9
834.431	-4.8
834.814	1
835.198	3.6
835.581	-1.7
835.965	-0.6
836.348	1.7
836.731	3
837.115	1.6
837.498	-0.8
837.881	2.2
838.264	-4.5
838.647	-2.5
839.03	0.5
839.413	-1.4
839.796	1.2
840.179	3
840.562	-4.6
840.944	-2.7
841.327	-0.7
841.71	2.4
842.092	5.7
842.475	10.5
842.857	-11.8
843.24	4.2
843.622	-3.6
844.004	-12.7
844.386	3.9
844.769	8
845.151	2.5
845.533	0.9
845.915	3.9
846.297	-2.9
846.678	7.8
847.06	-0.5
847.442	3.4
847.824	0
848.205	1.4
848.587	-2.5
848.968	-4.3
849.35	10.6
849.731	-4.2
850.113	-1.4
850.494	0.3
850.875	1.6
851.256	-2.1
851.638	-5.2
852.019	-2.4
852.4	2.7
852.781	-4.5
853.161	-4.2
853.542	-2.7
853.923	0.6
854.304	-0.1
854.685	1.5
855.065	1.4
855.446	-6.4
855.826	-1.8
856.207	1.6
856.587	5.3
856.967	-6.3
857.348	-5.5
857.728	-0.4
858.108	-2.1
858.488	5.6
858.868	-2.2
859.248	0.5
859.628	-6.1
860.008	-7.9
860.388	2.3
860.768	2.2
861.147	-4.6
861.527	-0.3
861.907	-3
862.286	-0.1
862.666	0
863.045	3.4
863.424	-0.4
863.804	3.9
864.183	6.6
864.562	4.6
864.941	-3.8
865.32	0.8
865.699	6.8
866.078	11
866.457	-10.4
866.836	-0.5
867.215	-1.1
867.594	8.1
867.972	-3.2
868.351	-5.9
868.729	-0.8
869.108	-0.8
869.486	-10.3
869.865	-4.1
870.243	-5
870.621	-2.6
871	9.6
871.378	-6.8
871.756	0.9
872.134	7.2
872.512	-1.3
872.89	2.8
873.268	4.3
873.646	-5.9
874.023	7.6
874.401	3.4
874.779	0.5
875.156	4.5
875.534	2.7
875.911	5.6
876.289	-16
876.666	-6.2
877.043	6
877.421	-4.1
877.798	6
878.175	0.5
878.552	13.5
878.929	-3.1
879.306	1.5
879.683	1.9
880.06	10.1
880.437	-11
880.813	3.6
881.19	6.3
881.567	0
881.943	-4.6
882.32	2.5
882.696	0.5
883.073	3.4
883.449	4.5
883.825	-0.1
884.202	12.8
884.578	5.5
884.954	-0.1
885.33	3.9
885.706	0.2
886.082	-2.5
886.458	4.7
886.834	1.4
887.209	4.7
887.585	1.4
887.961	3.3
888.336	-2.8
888.712	3.5
889.087	-3.7
889.463	1.5
889.838	-1.8
890.213	3.4
890.589	7.4
890.964	-0.3
891.339	1.5
891.714	0.3
892.089	-1.7
892.464	-3
892.839	-0.9
893.214	-9.4
893.589	1.3
893.963	-4.6
894.338	2.9
894.713	1.6
895.087	0.3
895.462	4.3
895.836	3.5
896.211	0.4
896.585	2.3
896.959	0.5
897.334	2.6
897.708	6.9
898.082	1.6
898.456	2.2
898.83	1.7
899.204	9.7
899.578	9.4
899.952	-1.4
900.325	6.9
900.699	4.1
901.073	1.2
901.446	11.3
901.82	5.2
902.193	-1.3
902.567	0.3
902.94	0.7
903.313	-4.6
903.687	1.3
904.06	14.3
904.433	0.2
904.806	7.9
905.179	4.3
905.552	2.3
905.925	4.6
906.298	5.1
906.671	8.4
907.043	5.7
907.416	1.1
907.789	20.9
908.161	6.1
908.534	4.9
908.906	0.6
909.279	-3.9
909.651	6.4
910.023	3.8
910.396	11.5
910.768	7.7
911.14	2.7
911.512	2.8
911.884	-3.6
912.256	3
912.628	-0.3
912.999	5.6
913.371	1.3
913.743	-2.7
914.115	1.2
914.486	-7.2
914.858	5.1
915.229	-1.4
915.601	5.1
915.972	11.4
916.343	10.9
916.715	-1.4
917.086	-11.6
917.457	3.4
917.828	10.9
918.199	6.6
918.57	0.4
918.941	7.3
919.312	10.2
919.682	6.2
920.053	-5.9
920.424	7
920.794	5.1
921.165	10.2
921.536	-0.9
921.906	11.1
922.276	7.2
922.647	-4
923.017	2.8
923.387	-2.4
923.757	10.1
924.127	0
924.497	9.9
924.867	1.5
925.237	2
925.607	0.3
925.977	9.4
926.347	3.1
926.716	4.7
927.086	10.7
927.456	12.4
927.825	1.4
928.195	10.3
928.564	8.4
928.933	15.5
929.303	-5.3
929.672	-2.6
930.041	1.1
930.41	6.4
930.779	9.5
931.148	11.9
931.517	5.9
931.886	1
932.255	8.2
932.624	8
932.993	-0.3
933.361	4.3
933.73	8.6
934.098	4.6
934.467	10.1
934.835	7.1
935.204	1.3
935.572	-0.8
935.94	10.3
936.308	11.3
936.677	2
937.045	10.9
937.413	13.2
937.781	0.1
938.149	10.1
938.516	7.2
938.884	8
939.252	12.9
939.62	5.2
939.987	11.9
940.355	-2.7
940.722	3.3
941.09	7.2
941.457	12.9
941.825	4.3
942.192	9.6
942.559	0.2
942.926	13.5
943.293	-1.2
943.66	3.1
944.027	9.3
944.394	19.2
944.761	-1.4
945.128	-1.7
945.495	10.1
945.861	10.3
946.228	-8.3
946.595	6.4
946.961	3.1
947.328	1.6
947.694	6.7
948.06	7.6
948.427	4.5
948.793	4.8
949.159	1.8
949.525	11
949.891	3.1
950.257	1.9
950.623	7.5
950.989	20.7
951.355	0.2
951.721	2.7
952.087	2.7
952.452	2.6
952.818	7.9
953.183	5.4
953.549	-0.4
953.914	-1.6
954.28	4.1
954.645	9
955.01	4.2
955.375	4.1
955.741	11.8
956.106	16.5
956.471	-0.7
956.836	3.1
957.201	1.3
957.566	6.4
957.93	3
958.295	9.4
958.66	7.4
959.024	4.8
959.389	6.3
959.753	9.6
960.118	7.2
960.482	2.1
960.847	7.3
961.211	0.2
961.575	6.8
961.939	2.3
962.303	-6.5
962.667	8.1
963.031	6.9
963.395	-5
963.759	7.7
964.123	3.1
964.487	-3.1
964.851	1.4
965.214	7.1
965.578	-2.1
965.941	-1.2
966.305	-7.6
966.668	-3.4
967.032	-1
967.395	11.7
967.758	8.2
968.121	8.8
968.484	2.2
968.847	2.5
969.21	4.7
969.573	-1.7
969.936	-2.6
970.299	1.9
970.662	0.1
971.025	-8.5
971.387	3.1
971.75	2.7
972.112	16.5
972.475	5.5
972.837	4.6
973.2	0.4
973.562	11.3
973.924	1.6
974.286	9.6
974.649	-8.9
975.011	16.1
975.373	-10.3
975.735	-0.5
976.097	4.8
976.458	3.6
976.82	-13.2
977.182	11.8
977.544	5.3
977.905	-3
978.267	5.2
978.628	-3.7
978.99	3.4
979.351	3.9
979.712	-4.1
980.074	-2.8
980.435	-2.7
980.796	12.1
981.157	-1
981.518	8.8
981.879	-2.7
982.24	2.1
982.601	1.2
982.962	4.7
983.323	-2.4
983.683	8.8
984.044	8.1
984.404	-9.2
984.765	9.2
985.125	5
985.486	10.3
985.846	13.3
986.206	3.6
986.567	-7.8
986.927	-6.2
987.287	3
987.647	0.7
988.007	7.7
988.367	-14.6
988.727	3.3
989.087	0.3
989.446	2.8
989.806	-1.7
990.166	-5.1
990.525	8.5
990.885	1.5
991.244	-1
991.604	4.3
991.963	6.8
992.322	2.7
992.682	3
993.041	-5.6
993.4	3.8
993.759	-2.9
994.118	-6.9
994.477	3.8
994.836	-3
995.195	-3.4
995.553	7.8
995.912	2.2
996.271	-1.9
996.629	2.3
996.988	8.1
997.346	0.5
997.705	-0.9
998.063	-0.7
998.422	-7.5
998.78	-6.5
999.138	-11.8
999.496	-3.4
999.854	1.8
1000.212	-15.8
1000.57	-1.1
1000.928	-4.7
1001.286	10.7
1001.644	-5.1
1002.001	2.4
1002.359	6
1002.717	3.8
1003.074	-2.1
1003.432	-3.6
1003.789	4.1
1004.147	7.3
1004.504	1.2
1004.861	2.9
1005.218	0
1005.576	-3.5
1005.933	-0.6
1006.29	-8
1006.647	0.8
1007.004	8.5
1007.36	-1.5
1007.717	-1.3
1008.074	-4.2
1008.431	1
1008.787	-5.2
1009.144	0.8
1009.5	-3.8
1009.857	-5.6
1010.213	5.5
1010.569	6.4
1010.926	-3.2
1011.282	-1.3
1011.638	-6.9
1011.994	3.4
1012.35	-2.9
1012.706	-3.5
1013.062	-8.7
1013.418	-6
1013.774	4.2
1014.13	8.2
1014.485	8
1014.841	5.4
1015.197	-5.6
1015.552	-2.3
1015.907	5.3
1016.263	-2.2
1016.618	5.6
1016.974	2.1
1017.329	-3.1
1017.684	-1.2
1018.039	-5.7
1018.394	-6.6
1018.749	-2.9
1019.104	7.5
1019.459	2.1
1019.814	3.4
1020.168	-8.5
1020.523	-2.5
1020.878	-3.3
1021.232	2.9
1021.587	-0.1
1021.941	-1.5
1022.296	-10.3
1022.65	4.1
1023.004	1.3
1023.359	-2.8
1023.713	-2
1024.067	-1.9
1024.421	5.3
1024.775	-8.1
1025.129	-2.6
1025.483	-1.2
1025.837	2.7
1026.19	-3.4
1026.544	-10.8
1026.898	-8.6
1027.251	5.2
1027.605	-2.1
1027.958	-13.3
1028.312	0.9
1028.665	3.1
1029.018	2.5
1029.372	9.5
1029.725	-5
1030.078	0.6
1030.431	-3.9
1030.784	4.7
1031.137	-2.6
1031.49	9.5
1031.843	-4.3
1032.195	-9.4
1032.548	-6.6
1032.901	-4.7
1033.253	2
1033.606	3.9
1033.958	-3.9
1034.311	0.6
1034.663	-1.4
1035.016	9.9
1035.368	-0.7
1035.72	0.6
1036.072	1.5
1036.424	3.4
1036.776	1.8
1037.128	4.5
1037.48	-8.4
