Data from 0.7bar_Subt2__0__18-24-05-178.txt Node

Date: Thu Jan 06 18:24:05 CET 2022
User: fsatto
Spectrometer: OFX01956
Trigger mode: 0
Integration Time (sec): 1.000000E-2
Scans to average: 10
Nonlinearity correction enabled: false
Boxcar width: 0
Storing dark spectrum: false
XAxis mode: Wavelengths
Number of Pixels in Spectrum: 2136
>>>>>Begin Spectral Data<<<<<
158.236	-8.1
158.705	-5.2
159.174	-2.7
159.643	-7.5
160.112	-7.1
160.582	-3.3
161.051	-7
161.52	-11
161.988	-8.7
162.457	-9.4
162.926	-8.3
163.395	-8.8
163.864	2
164.332	2.5
164.801	0.9
165.269	-7.4
165.738	-2.2
166.206	-9.5
166.675	-9.8
167.143	-1.8
167.612	-9.6
168.08	0.4
168.548	-3.1
169.016	0.4
169.484	-3
169.952	-3.8
170.42	-11
170.888	-3.3
171.356	-9.3
171.824	-5.6
172.292	-12.5
172.759	-12.7
173.227	-5.2
173.695	-8.5
174.162	-8.4
174.63	-8.9
175.097	-11.6
175.565	-5.7
176.032	-8.9
176.499	-5.2
176.967	-10.1
177.434	-15.1
177.901	-2.8
178.368	-12.8
178.835	-9.6
179.302	0.9
179.769	-3.9
180.236	-7.9
180.703	-9.8
181.17	-6.2
181.637	-9
182.103	-6.3
182.57	-2.1
183.036	-1
183.503	-1.9
183.97	-9
184.436	-1.3
184.902	-3.5
185.369	-6.4
185.835	1.8
186.301	1.3
186.767	-9.2
187.234	-2.1
187.7	-9.5
188.166	-18.4
188.632	-11.1
189.098	-5.9
189.563	-3.5
190.029	-0.1
190.495	-6.7
190.961	-6.8
191.426	-15.2
191.892	-4.2
192.358	-8.6
192.823	-6.6
193.289	-8.8
193.754	-2.1
194.219	-10.7
194.685	-11.5
195.15	-6.1
195.615	-3.4
196.08	1.8
196.545	-7.6
197.01	-9.3
197.475	-11.3
197.94	-9.3
198.405	-5.2
198.87	-5.7
199.335	-6
199.8	-2.6
200.264	44
200.729	31.1
201.193	24.7
201.658	39.6
202.122	40.1
202.587	41.6
203.051	32.5
203.516	42
203.98	39.3
204.444	47.1
204.908	35.9
205.372	47.3
205.836	55.2
206.3	53.9
206.764	63.6
207.228	70.5
207.692	63.3
208.156	75.7
208.62	75.7
209.083	72.7
209.547	89.5
210.011	94.8
210.474	106.8
210.938	121.6
211.401	136.6
211.864	167.4
212.328	180.7
212.791	185.7
213.254	219.6
213.717	229.4
214.181	274
214.644	318.4
215.107	367.5
215.57	399
216.033	412.3
216.495	498.5
216.958	635.4
217.421	690.3
217.884	765.8
218.346	800.1
218.809	864
219.272	958.2
219.734	1107.2
220.196	1225.2
220.659	1319.9
221.121	1325.9
221.584	1379.9
222.046	1449.4
222.508	1647
222.97	1804.5
223.432	1976.7
223.894	2076.9
224.356	2193.6
224.818	2374.9
225.28	2722.9
225.742	3186.6
226.204	3784.6
226.665	4112.8
227.127	4198.5
227.589	4506.3
228.05	4975.3
228.512	5601.2
228.973	5867.6
229.435	5549.3
229.896	5231.3
230.357	5395.5
230.818	6119.2
231.28	6842.7
231.741	7355.5
232.202	7124.8
232.663	6617.5
233.124	6741.7
233.585	7648.5
234.046	8764.3
234.507	9306.6
234.967	8709.1
235.428	8254.5
235.889	8083.9
236.349	8864
236.81	10322.2
237.271	11404.3
237.731	11246.8
238.191	10359.3
238.652	10067.5
239.112	11013.2
239.572	12763.8
240.033	13953.1
240.493	13085.5
240.953	11448.6
241.413	10872
241.873	11754.6
242.333	13207.2
242.793	13597.4
243.253	13045
243.712	12580.6
244.172	12720.3
244.632	13349.2
245.092	14861.9
245.551	16150.1
246.011	16571.8
246.47	16341.9
246.93	17219.9
247.389	19709
247.848	22666
248.308	24050.3
248.767	24069
249.226	23458.9
249.685	23248.5
250.144	23901.1
250.603	25971.6
251.062	27605.9
251.521	27064.8
251.98	25636.2
252.439	24390.3
252.897	24389
253.356	25739.8
253.815	26983.6
254.273	26774.8
254.732	25720.8
255.19	23012.2
255.649	20971.8
256.107	21135.8
256.566	22195.1
257.024	23462
257.482	22937.2
257.94	21249.5
258.398	21896.2
258.856	22734.4
259.315	23034.7
259.772	22898.1
260.23	22017.6
260.688	20381.6
261.146	18787.9
261.604	17743.8
262.062	18096.2
262.519	19394.7
262.977	20413.6
263.434	18861.4
263.892	17293.9
264.349	16921.5
264.807	17107.6
265.264	17219.3
265.721	17007
266.179	16839.9
266.636	15518.1
267.093	14102.1
267.55	13882.9
268.007	14684.1
268.464	15751.3
268.921	16038.4
269.378	14974.3
269.835	14287.6
270.291	14163.7
270.748	14225.7
271.205	14783.7
271.661	15073
272.118	14524.8
272.574	14385.4
273.031	14423.5
273.487	14183
273.944	13889.5
274.4	14130.4
274.856	14312.9
275.312	13740.9
275.768	13024
276.225	12716.7
276.681	12599.1
277.137	12316.1
277.593	11924.1
278.048	11569.5
278.504	11273.8
278.96	10821.2
279.416	10013.4
279.871	9148.5
280.327	8797.7
280.783	8926.7
281.238	8964.7
281.694	8651
282.149	8154.2
282.604	7917.3
283.06	7581
283.515	7326.5
283.97	7100.9
284.425	7020.8
284.88	7005.6
285.335	6750.2
285.79	6218
286.245	5615.7
286.7	5682.4
287.155	5850.7
287.61	5729.5
288.064	5700.7
288.519	5857.2
288.974	5717.6
289.428	5426.8
289.883	5259.3
290.337	5389.8
290.792	5537
291.246	5640.4
291.7	5693
292.155	5424.2
292.609	5146.4
293.063	4781.7
293.517	4649.7
293.971	4636.3
294.425	4571.4
294.879	4451.5
295.333	4297.8
295.787	3929.8
296.241	3736.5
296.694	3645.8
297.148	3667.3
297.602	3651.6
298.055	3582.5
298.509	3411.1
298.962	3082.7
299.416	2874.2
299.869	2842.8
300.322	2803.2
300.775	2727
301.229	2574.3
301.682	2392.1
302.135	2203.9
302.588	2043.5
303.041	1942.4
303.494	1836.9
303.947	1741.5
304.4	1647.9
304.852	1529.7
305.305	1441.2
305.758	1312.7
306.21	1221.6
306.663	1140.1
307.115	1094.2
307.568	1079.4
308.02	1101.6
308.473	1022.2
308.925	935.2
309.377	871.3
309.829	809
310.282	803.3
310.734	787.6
311.186	733.3
311.638	678.2
312.09	650.8
312.542	591.3
312.993	568.5
313.445	536.5
313.897	507.3
314.349	476.3
314.8	454.1
315.252	419.2
315.703	413.1
316.155	391.7
316.606	362.1
317.058	357.9
317.509	346.6
317.96	324.3
318.411	312.7
318.863	311.8
319.314	295.3
319.765	274.7
320.216	256.7
320.667	237.3
321.117	226.4
321.568	209.6
322.019	208.7
322.47	207
322.921	181.7
323.371	160.4
323.822	153.3
324.272	130.4
324.723	127.5
325.173	118.4
325.623	112.5
326.074	101
326.524	102.5
326.974	105.5
327.424	154.5
327.874	194.6
328.325	137.1
328.775	96.6
329.224	85.1
329.674	78.2
330.124	75.1
330.574	77.9
331.024	72.9
331.473	62.7
331.923	60.2
332.373	53.7
332.822	51.1
333.272	48.4
333.721	45.5
334.17	38.9
334.62	34.7
335.069	30.8
335.518	30.9
335.967	31
336.416	27.3
336.865	24.3
337.314	24
337.763	19.9
338.212	20.1
338.661	16.5
339.11	16.4
339.558	14.9
340.007	14.4
340.456	12.5
340.904	7
341.353	15
341.801	4.7
342.25	6.9
342.698	5.6
343.146	6.9
343.595	5.4
344.043	-1.6
344.491	13.5
344.939	-1.3
345.387	-0.5
345.835	5.1
346.283	11.1
346.731	15.7
347.179	-4.5
347.626	5.3
348.074	-8.1
348.522	1
348.969	0.8
349.417	-1.3
349.865	-1.1
350.312	-1.3
350.759	-8
351.207	-2.6
351.654	-6
352.101	-1.8
352.548	-5.6
352.996	-0.4
353.443	7.4
353.89	-6.6
354.337	-7
354.784	-13
355.231	0
355.677	-4.5
356.124	-3.9
356.571	-8.2
357.018	-1.2
357.464	-14.1
357.911	4.8
358.357	3
358.804	2.1
359.25	12.9
359.696	0.4
360.143	-4.7
360.589	1.7
361.035	-2.6
361.481	4.5
361.927	8.9
362.373	3.4
362.819	3.5
363.265	-4
363.711	-4.2
364.157	0
364.603	-2.1
365.048	2.2
365.494	1.2
365.94	-4.9
366.385	-3.4
366.831	-1
367.276	2.6
367.722	-5.1
368.167	-8.8
368.612	1.8
369.057	-8.3
369.503	2.4
369.948	-2.7
370.393	-6.5
370.838	2.5
371.283	-3.4
371.728	-12.2
372.173	-3.6
372.617	-2.9
373.062	-5.7
373.507	-0.4
373.951	-2.5
374.396	3.6
374.841	3.1
375.285	0.8
375.729	-3.9
376.174	-1.6
376.618	-8.9
377.062	-2.1
377.507	-4.8
377.951	-3.4
378.395	-16.6
378.839	-1.2
379.283	-3.8
379.727	8.7
380.171	2.2
380.615	1.2
381.059	0.2
381.502	7.6
381.946	-11.1
382.39	0.8
382.833	4.4
383.277	-9.9
383.72	-9
384.164	-6.1
384.607	-6.3
385.05	6.6
385.494	5.7
385.937	-1.8
386.38	-7.1
386.823	-4.3
387.266	-2.2
387.709	-3.9
388.152	-6.4
388.595	-3.6
389.038	-0.4
389.481	-5
389.923	-5.5
390.366	-6.7
390.809	-8.9
391.251	-6.6
391.694	4.8
392.136	1.8
392.579	-3.4
393.021	-6.9
393.463	-6.8
393.906	-3.7
394.348	-0.2
394.79	10.4
395.232	-1.6
395.674	-9
396.116	2
396.558	-3
397	7.3
397.442	5.5
397.884	-6.8
398.325	1.4
398.767	2.1
399.209	3.6
399.65	7
400.092	-6.8
400.533	-2.1
400.974	-16.7
401.416	-8.5
401.857	-3
402.298	-4.4
402.74	-13.5
403.181	-1.1
403.622	1.3
404.063	13.2
404.504	-1.3
404.945	-3
405.386	4.2
405.826	-6.1
406.267	-2.1
406.708	-1
407.149	-0.1
407.589	-10.5
408.03	-5.4
408.47	-4.5
408.911	1.4
409.351	-3.6
409.791	1.7
410.232	-6.8
410.672	-3.7
411.112	-2.8
411.552	-0.7
411.992	-5.5
412.432	-8.4
412.872	1.7
413.312	3.3
413.752	-3
414.192	-1.1
414.632	-6.2
415.071	-4.9
415.511	1.8
415.951	-6.6
416.39	3.5
416.83	-7.6
417.269	-1.1
417.708	10.3
418.148	-3.7
418.587	-8.8
419.026	-6
419.465	-15.2
419.904	7.8
420.344	-5.1
420.783	-6.1
421.221	-2.1
421.66	-9.8
422.099	-12.7
422.538	-2.5
422.977	-5.1
423.415	-6
423.854	-12.4
424.293	-0.6
424.731	3.1
425.17	-6.5
425.608	-0.9
426.046	-7.3
426.485	-12.4
426.923	-11.3
427.361	-1.7
427.799	0.4
428.237	1
428.675	0.8
429.113	-5.1
429.551	-7.5
429.989	3
430.427	0.5
430.865	-5.4
431.303	-11.2
431.74	0.4
432.178	-13.8
432.615	-8.9
433.053	-4.9
433.49	0.5
433.928	0.2
434.365	4.5
434.802	-4.9
435.24	2.5
435.677	-1.7
436.114	-1.8
436.551	3
436.988	-2.8
437.425	-2.4
437.862	-1.8
438.299	-3.4
438.736	-1.5
439.172	-3.8
439.609	-7.9
440.046	-15.2
440.482	-7.5
440.919	-1.9
441.355	-10.1
441.792	-4.9
442.228	-2.3
442.665	0.4
443.101	-1.1
443.537	-0.9
443.973	8.1
444.409	7.8
444.845	0.8
445.281	1.3
445.717	-3
446.153	-7
446.589	-5.5
447.025	1.9
447.461	2
447.896	4.5
448.332	2.3
448.768	-0.1
449.203	-3.2
449.639	-2
450.074	7.7
450.509	0.9
450.945	4.2
451.38	-5.2
451.815	-9.1
452.25	-4.5
452.685	5
453.12	-5.8
453.555	-15.1
453.99	-2.7
454.425	-2
454.86	-5.4
455.295	-2.4
455.73	2.5
456.164	4.5
456.599	1.5
457.033	6
457.468	-10
457.902	-2.7
458.337	11.2
458.771	-1
459.205	-6.4
459.64	-2.4
460.074	5.3
460.508	-0.3
460.942	13.1
461.376	-1.5
461.81	-6.3
462.244	1.6
462.678	-3.6
463.112	-4.1
463.545	-6.3
463.979	-0.3
464.413	0.5
464.846	5.4
465.28	-0.9
465.713	-5.4
466.147	-0.4
466.58	5.6
467.014	-11.6
467.447	10.1
467.88	1.8
468.313	0.3
468.746	2.6
469.179	-7.3
469.612	-7.9
470.045	-4.8
470.478	7.8
470.911	-0.5
471.344	0.9
471.777	-0.6
472.209	5.1
472.642	3.7
473.074	-0.9
473.507	5.6
473.939	-0.3
474.372	7.2
474.804	0.4
475.236	14.2
475.669	13.2
476.101	16.2
476.533	10.2
476.965	4.4
477.397	9
477.829	16
478.261	-4.1
478.693	10.9
479.125	9.6
479.557	7.9
479.988	2.8
480.42	15.1
480.852	16
481.283	8.5
481.715	2.9
482.146	6.5
482.577	4.7
483.009	-0.7
483.44	10.7
483.871	0.9
484.302	1.9
484.734	8.4
485.165	3.5
485.596	5.7
486.027	7.1
486.457	6.4
486.888	2.4
487.319	3.4
487.75	7.9
488.181	6
488.611	0.5
489.042	-3
489.472	0.3
489.903	1.2
490.333	2.7
490.764	8.6
491.194	-5.8
491.624	0.7
492.054	8.4
492.484	6.1
492.915	3.2
493.345	6.4
493.775	-2
494.204	1.2
494.634	2.7
495.064	2
495.494	1.2
495.924	-7.8
496.353	-2.5
496.783	0.5
497.212	-3
497.642	-1.7
498.071	-1.4
498.501	-3.4
498.93	2.1
499.359	-5.3
499.789	-5.7
500.218	-1.8
500.647	1.7
501.076	0.7
501.505	1.2
501.934	2.3
502.363	1.1
502.792	-0.1
503.221	2.9
503.649	-2.3
504.078	1.7
504.507	4
504.935	-6
505.364	5.2
505.792	8.4
506.221	-10.8
506.649	-2.4
507.077	-4.5
507.506	-5.3
507.934	-3.8
508.362	-1.4
508.79	1
509.218	-10.3
509.646	-2.2
510.074	6.3
510.502	-9.3
510.93	-12.3
511.357	-3
511.785	9.4
512.213	-7.9
512.64	-4.8
513.068	-1.3
513.496	0.5
513.923	-5.9
514.35	-3.8
514.778	-10.6
515.205	-10.1
515.632	-0.6
516.059	2.1
516.486	1.3
516.914	-10.3
517.341	-3
517.768	4
518.194	-9.6
518.621	-7.4
519.048	-1.5
519.475	-0.6
519.902	-3.2
520.328	6
520.755	1.4
521.181	-8.5
521.608	-3.5
522.034	-3.3
522.461	5.5
522.887	-9.4
523.313	-1.7
523.739	-4.1
524.165	12.1
524.592	-9
525.018	-3.9
525.444	-5.7
525.869	1.5
526.295	-5.3
526.721	1.6
527.147	-8.5
527.573	5.2
527.998	-2.2
528.424	-3.1
528.849	-6
529.275	11.6
529.7	-0.2
530.126	9.3
530.551	-5.5
530.976	3.1
531.402	-1.2
531.827	3.3
532.252	2.7
532.677	2.9
533.102	5.9
533.527	-3.5
533.952	-3.4
534.377	-5.2
534.801	-2.2
535.226	4.3
535.651	-15.7
536.076	-3.4
536.5	-6
536.925	3.1
537.349	1.1
537.773	-8.2
538.198	-1.1
538.622	-3.1
539.046	-2.1
539.471	-2.9
539.895	3.4
540.319	-7.8
540.743	-4
541.167	-1.1
541.591	-9.1
542.015	-1.4
542.438	-7.1
542.862	0.8
543.286	-0.8
543.71	0.1
544.133	-3
544.557	-0.7
544.98	-9.3
545.404	2.2
545.827	-6.4
546.25	1.4
546.674	5.6
547.097	-3.3
547.52	-2.6
547.943	-11.6
548.366	-6
548.789	2.3
549.212	-3.5
549.635	-3.1
550.058	-7.5
550.481	-0.7
550.903	-8.7
551.326	0.6
551.749	-2.1
552.171	-2
552.594	-6.7
553.016	-6.3
553.438	-2.3
553.861	-6.9
554.283	-1.6
554.705	3.9
555.128	-4.1
555.55	-3.2
555.972	2.5
556.394	1.2
556.816	5.8
557.238	-8.8
557.659	0.5
558.081	-6
558.503	-4.8
558.925	-7.7
559.346	-1.4
559.768	-7
560.189	-4.7
560.611	8.6
561.032	1
561.454	-5.9
561.875	1.1
562.296	3.3
562.718	1.5
563.139	0.9
563.56	0.4
563.981	-1.1
564.402	-4.8
564.823	6.4
565.244	0.3
565.664	-4.5
566.085	7.7
566.506	-7.2
566.927	-1.2
567.347	-8.5
567.768	-5.6
568.188	-3
568.609	-3.3
569.029	-9
569.449	-3.8
569.87	-1.7
570.29	-7.7
570.71	-12.2
571.13	-1.3
571.55	-21.2
571.97	2.7
572.39	1.7
572.81	-11
573.23	-0.4
573.65	-1
574.069	-3.9
574.489	1.1
574.909	-7.1
575.328	1.5
575.748	-2
576.167	-9.4
576.587	5.5
577.006	-3.4
577.425	0.9
577.844	-3
578.264	-9.9
578.683	-5.2
579.102	-4.3
579.521	-0.8
579.94	-7.2
580.359	5.4
580.778	-0.4
581.196	-2.7
581.615	-8.1
582.034	-12
582.452	-5.1
582.871	-3.1
583.29	-3.2
583.708	-7.9
584.126	-1.9
584.545	0.7
584.963	-16.1
585.381	-4.7
585.8	-13.4
586.218	-1.3
586.636	-3
587.054	-2.6
587.472	-14.8
587.89	-3.9
588.308	-5.5
588.725	2.1
589.143	-6
589.561	-8
589.979	-8.6
590.396	1.2
590.814	4.7
591.231	0.1
591.649	3.4
592.066	-7.2
592.483	-5.5
592.901	-3.4
593.318	-2.1
593.735	-12.2
594.152	0.8
594.569	-1.4
594.986	-13.1
595.403	-2.8
595.82	-1.3
596.237	2.1
596.654	-0.4
597.07	-5.9
597.487	-7.9
597.904	-7.7
598.32	-6.2
598.737	-5.1
599.153	-2
599.57	-5.1
599.986	-4.6
600.402	1.8
600.818	0.4
601.235	-3.8
601.651	2.4
602.067	-6.4
602.483	-2.8
602.899	-5.8
603.315	-3.2
603.73	4.5
604.146	-7.8
604.562	-9
604.978	-15.7
605.393	-0.9
605.809	-8.6
606.224	-1.7
606.64	-2.1
607.055	2.8
607.471	-5.1
607.886	-2.9
608.301	-3.9
608.716	-10.7
609.131	-1.4
609.547	-0.1
609.962	4.2
610.377	1.5
610.791	-18.9
611.206	-9.7
611.621	-11
612.036	-6.1
612.451	0.2
612.865	-18.4
613.28	-5.5
613.694	-2.9
614.109	-11.6
614.523	-1.1
614.938	-2
615.352	1.7
615.766	-7.3
616.18	11.5
616.595	8.9
617.009	2.5
617.423	-8.5
617.837	0.4
618.251	-3.9
618.664	-2.6
619.078	-1.8
619.492	3.6
619.906	-5.6
620.319	1.2
620.733	7.9
621.146	5.6
621.56	10.2
621.973	13.2
622.387	8
622.8	8.8
623.213	6.8
623.627	8.1
624.04	14.9
624.453	11.3
624.866	14.8
625.279	11
625.692	11.1
626.105	7.8
626.518	7.8
626.93	21.8
627.343	23.4
627.756	14.6
628.168	18
628.581	19.2
628.993	12.8
629.406	21.7
629.818	23.6
630.231	27.9
630.643	25.3
631.055	30
631.467	32.5
631.879	33.8
632.291	37.7
632.703	40.1
633.115	45.5
633.527	52.2
633.939	65
634.351	67.8
634.763	66.3
635.174	71.7
635.586	82.2
635.997	86.1
636.409	81.5
636.82	98.5
637.232	90.3
637.643	98.8
638.054	96.9
638.466	114.5
638.877	113.4
639.288	116.1
639.699	114.3
640.11	115.7
640.521	121.2
640.932	120.3
641.343	109.1
641.753	130.6
642.164	126.7
642.575	142.2
642.986	129
643.396	133.1
643.807	138.2
644.217	129.7
644.627	131.3
645.038	119.4
645.448	136.7
645.858	124.7
646.269	118.5
646.679	124.7
647.089	114
647.499	116.7
647.909	103.6
648.319	117.1
648.728	95.6
649.138	99.9
649.548	111.8
649.958	90.9
650.367	93.8
650.777	87.3
651.186	83.5
651.596	73.9
652.005	77.2
652.415	73.4
652.824	76.9
653.233	69.4
653.642	75.6
654.052	71.6
654.461	66.8
654.87	67.2
655.279	65.3
655.688	78.4
656.096	60.9
656.505	76.7
656.914	74.3
657.323	77.5
657.731	67.5
658.14	62
658.548	67
658.957	64.9
659.365	57
659.774	74.4
660.182	58.1
660.59	67.6
660.998	61.7
661.407	59.7
661.815	55.9
662.223	57.9
662.631	60.2
663.039	62.6
663.446	63.1
663.854	55.8
664.262	50.5
664.67	50
665.077	51.9
665.485	51.5
665.892	45.5
666.3	40.1
666.707	46.9
667.115	42.8
667.522	41.1
667.929	31
668.337	28.1
668.744	31.3
669.151	24.6
669.558	36.1
669.965	30.6
670.372	28.7
670.779	10.3
671.185	23.1
671.592	18.5
671.999	21.8
672.405	21
672.812	14
673.219	17.8
673.625	7.7
674.032	15.1
674.438	0.5
674.844	13.2
675.25	6.9
675.657	-1.7
676.063	7.1
676.469	0.3
676.875	5.2
677.281	2.6
677.687	0.2
678.093	5.7
678.499	5.2
678.904	0.9
679.31	2.6
679.716	2.6
680.121	4.8
680.527	6.2
680.932	6.6
681.338	-8
681.743	-1.3
682.148	-2.5
682.554	0.4
682.959	-3.8
683.364	1
683.769	11
684.174	-1.8
684.579	-10.3
684.984	-2.8
685.389	-9.4
685.794	-10
686.199	-4.6
686.603	-11.9
687.008	-8.5
687.413	-2.6
687.817	-3.4
688.222	-6
688.626	-17.5
689.03	-0.8
689.435	-1.3
689.839	-3.5
690.243	-3.9
690.647	-2.6
691.051	3.6
691.456	0.3
691.859	-7.7
692.263	0.9
692.667	-5.3
693.071	-8.1
693.475	-0.1
693.879	6.8
694.282	-6
694.686	-8.8
695.089	7.6
695.493	0.9
695.896	-4.1
696.3	1.2
696.703	5.2
697.106	-1.3
697.509	-0.3
697.913	-3.3
698.316	-10.6
698.719	4.9
699.122	1
699.525	-2.5
699.928	-5.7
700.33	0.5
700.733	-4.6
701.136	-5.1
701.539	-5
701.941	-8
702.344	-3.3
702.746	-6.4
703.149	-0.5
703.551	-5.7
703.953	-3.8
704.356	2.9
704.758	-4.4
705.16	0.8
705.562	-7.2
705.964	-6
706.366	-6.8
706.768	-2
707.17	-0.7
707.572	0.6
707.973	-3
708.375	-1.3
708.777	-7.6
709.178	-0.5
709.58	-8.9
709.981	2
710.383	-5.6
710.784	2.4
711.186	-8.8
711.587	-4.8
711.988	2
712.389	-9.9
712.79	-8.5
713.191	3.8
713.592	-10.4
713.993	-11.1
714.394	-2.3
714.795	3
715.196	-3.8
715.596	-14.3
715.997	-7.7
716.398	-2.8
716.798	-13.2
717.199	-7.2
717.599	-2
718	-6.7
718.4	1
718.8	4.3
719.2	-6.4
719.6	-8.4
720.001	-9.7
720.401	-4.5
720.801	-21.1
721.201	-4.2
721.6	-5
722	4.1
722.4	-4
722.8	-9.4
723.199	-7.8
723.599	-11
723.998	-4.7
724.398	-8.7
724.797	-9
725.197	-12.7
725.596	-0.7
725.995	-5.1
726.394	-12.4
726.794	-5.2
727.193	-1.9
727.592	-11.1
727.991	-5.1
728.39	-5.4
728.789	-14.9
729.187	0.4
729.586	6.4
729.985	-6.5
730.383	-5.3
730.782	13
731.181	-0.1
731.579	4.4
731.977	6.8
732.376	-2.4
732.774	-5.2
733.172	-4.3
733.571	-7.9
733.969	-8.8
734.367	2
734.765	5.7
735.163	-1.7
735.561	4.9
735.959	10.7
736.356	0
736.754	5
737.152	0.3
737.55	2.3
737.947	0.4
738.345	6.7
738.742	4.8
739.14	11.8
739.537	9.3
739.934	13.7
740.331	13.5
740.729	19.3
741.126	21
741.523	5.3
741.92	15.2
742.317	24.5
742.714	16.4
743.111	16.6
743.507	15.1
743.904	5.6
744.301	19.6
744.697	8.9
745.094	21
745.491	13.9
745.887	23.3
746.283	23.6
746.68	14.5
747.076	18.4
747.472	22.1
747.869	12.3
748.265	21.3
748.661	5.7
749.057	10.4
749.453	14.1
749.849	21.7
750.244	15.2
750.64	23.6
751.036	13.4
751.432	11.7
751.827	17
752.223	12.4
752.618	23.9
753.014	7.7
753.409	8
753.805	11.3
754.2	11.9
754.595	21.2
754.99	19.4
755.385	15.6
755.78	27.8
756.175	28.2
756.57	26.1
756.965	16.5
757.36	18.5
757.755	17.1
758.15	25.9
758.544	17.1
758.939	26.4
759.334	27.8
759.728	26.6
760.122	39.3
760.517	41.5
760.911	44.5
761.306	42.5
761.7	33.6
762.094	30.6
762.488	38.1
762.882	32.8
763.276	39.1
763.67	32.4
764.064	41.1
764.458	47.9
764.852	45.9
765.245	39.8
765.639	47.4
766.033	47.8
766.426	49.8
766.82	61.4
767.213	59.3
767.606	68.5
768	57.4
768.393	61.9
768.786	47.6
769.179	55.9
769.572	68.3
769.966	56.8
770.358	57.3
770.751	51.2
771.144	70.5
771.537	67.4
771.93	59.8
772.323	59.4
772.715	65.3
773.108	59.6
773.5	56
773.893	53.1
774.285	48.2
774.678	51.1
775.07	51.1
775.462	46.6
775.854	42.9
776.247	36
776.639	41.5
777.031	41.7
777.423	46.1
777.815	42.2
778.207	46.5
778.598	51.9
778.99	47.3
779.382	52.8
779.773	57.4
780.165	61.4
780.557	56
780.948	62.8
781.339	58
781.731	67.5
782.122	72.9
782.513	69.1
782.905	68
783.296	66
783.687	59.8
784.078	49.2
784.469	67
784.86	48.6
785.251	57.5
785.641	63.6
786.032	54.1
786.423	47.8
786.813	65.1
787.204	58.6
787.594	56.2
787.985	48.2
788.375	58.9
788.766	59.7
789.156	43.9
789.546	35.5
789.936	43.1
790.326	34.5
790.717	24.9
791.107	36.2
791.497	31.8
791.886	27.2
792.276	32.3
792.666	27.8
793.056	24.4
793.445	23.9
793.835	26.8
794.225	30.9
794.614	23.7
795.004	24.7
795.393	13.4
795.782	22
796.172	16.7
796.561	18.2
796.95	7.2
797.339	13.4
797.728	15.5
798.117	13.4
798.506	19.3
798.895	11.3
799.284	29.5
799.673	20.9
800.061	19.2
800.45	14.8
800.839	11.1
801.227	10
801.616	4.8
802.004	12.2
802.392	8.3
802.781	8.5
803.169	10.5
803.557	7.7
803.945	1.3
804.333	7.8
804.721	-0.5
805.109	5.6
805.497	3
805.885	-1.9
806.273	2.1
806.661	5
807.048	4.7
807.436	6.4
807.824	12.3
808.211	-6.2
808.599	4.7
808.986	3.5
809.373	1.6
809.761	0.5
810.148	4.8
810.535	-3
810.922	-9.3
811.309	1.8
811.696	-1.5
812.083	1.1
812.47	-2.9
812.857	-6.5
813.244	-6.3
813.631	-6
814.017	-5.1
814.404	1.2
814.791	-3.5
815.177	3.6
815.564	3.5
815.95	2.9
816.336	0.2
816.723	-2.5
817.109	-6.2
817.495	-5.5
817.881	11.4
818.267	1.2
818.653	-6
819.039	-5.8
819.425	-5.3
819.811	3
820.197	-0.9
820.582	-2.1
820.968	-1.4
821.354	-2.4
821.739	-4.7
822.125	0.1
822.51	7.2
822.895	4.3
823.281	-6.4
823.666	-5.2
824.051	-0.4
824.436	-1.6
824.822	-1.8
825.207	-8
825.592	2.4
825.976	-10.3
826.361	1.6
826.746	-0.9
827.131	-7
827.516	-6.6
827.9	1
828.285	-3.9
828.669	-5.8
829.054	1.9
829.438	3.8
829.823	5.5
830.207	4.4
830.591	-8.6
830.975	-2.9
831.36	-6.2
831.744	-5.3
832.128	-15
832.512	0
832.895	-4.8
833.279	-2.3
833.663	-3.8
834.047	2
834.431	-6.1
834.814	-1.3
835.198	-2.5
835.581	1.7
835.965	-7.6
836.348	-7.8
836.731	-3.7
837.115	-6.7
837.498	-7.1
837.881	3.9
838.264	-11.6
838.647	-2.3
839.03	3.4
839.413	-8.8
839.796	-2.4
840.179	0
840.562	-2.3
840.944	-7.7
841.327	-8.8
841.71	-6.1
842.092	-1
842.475	4.5
842.857	-16
843.24	-0.8
843.622	-9.4
844.004	-9
844.386	1.7
844.769	1.2
845.151	0.8
845.533	-0.9
845.915	9
846.297	-7.3
846.678	1.8
847.06	-6.6
847.442	-2.5
847.824	-4.6
848.205	-12.4
848.587	7.7
848.968	-2.2
849.35	4
849.731	-10.7
850.113	-5.6
850.494	-8.1
850.875	-5.8
851.256	-3.2
851.638	-12
852.019	-11.2
852.4	1.3
852.781	-16.9
853.161	-9.8
853.542	-9.9
853.923	-1
854.304	-6.8
854.685	4
855.065	-3.7
855.446	-7.4
855.826	-11.4
856.207	-8.8
856.587	6.7
856.967	-12.3
857.348	-6.4
857.728	1.8
858.108	-12
858.488	3.7
858.868	1.8
859.248	-7.6
859.628	-13.7
860.008	-3.3
860.388	-7.4
860.768	2.8
861.147	-5.3
861.527	-0.7
861.907	-7.6
862.286	-3.1
862.666	-4.7
863.045	2.6
863.424	-4.3
863.804	-4.2
864.183	-4.1
864.562	-3.4
864.941	-3
865.32	-2.1
865.699	0.3
866.078	-0.5
866.457	-17.1
866.836	-4.4
867.215	-9.1
867.594	-1.8
867.972	-1
868.351	-8.3
868.729	-10.9
869.108	-2.8
869.486	-7.7
869.865	-4.2
870.243	-7.8
870.621	-6.9
871	-6.6
871.378	-10.3
871.756	-0.6
872.134	-6
872.512	-9.2
872.89	-5.7
873.268	-11.1
873.646	-10.9
874.023	-4.5
874.401	-3.1
874.779	-1.9
875.156	-3.1
875.534	5.4
875.911	4.8
876.289	-4.1
876.666	-16.1
877.043	3.4
877.421	-6.3
877.798	-2.1
878.175	-2.7
878.552	1.5
878.929	-3.5
879.306	-1.2
879.683	4
880.06	-6
880.437	-13.7
880.813	-8.1
881.19	-2.1
881.567	1.9
881.943	-18.6
882.32	-6.5
882.696	8
883.073	-12.4
883.449	-4.8
883.825	-8.6
884.202	-1.7
884.578	-9.9
884.954	-7.2
885.33	-2.5
885.706	-3
886.082	-5.2
886.458	-5.7
886.834	-7.7
887.209	-2
887.585	-3
887.961	1.3
888.336	-7.9
888.712	-1.8
889.087	-3.2
889.463	-10.5
889.838	-10.2
890.213	1.6
890.589	4.8
890.964	-11.3
891.339	2.6
891.714	-7.2
892.089	-8
892.464	-3.7
892.839	-2.5
893.214	-11.3
893.589	-6.8
893.963	-5.2
894.338	-3.3
894.713	4.7
895.087	1.6
895.462	-0.9
895.836	6.4
896.211	1.1
896.585	-8.3
896.959	-1.8
897.334	-1.9
897.708	0.8
898.082	-2.7
898.456	-7
898.83	-1.1
899.204	7.2
899.578	2
899.952	-3.9
900.325	0.4
900.699	0.9
901.073	2.1
901.446	3
901.82	1.9
902.193	0.1
902.567	2.3
902.94	4.1
903.313	-7.2
903.687	-3.3
904.06	6.9
904.433	-2.9
904.806	3.1
905.179	-3.4
905.552	0.7
905.925	4.3
906.298	0.5
906.671	3.8
907.043	-0.4
907.416	-8.2
907.789	6.1
908.161	-2.1
908.534	3.9
908.906	-9.7
909.279	-6.4
909.651	-3
910.023	-6.5
910.396	3.8
910.768	-4.5
911.14	1.2
911.512	-0.4
911.884	-9.1
912.256	-0.4
912.628	2.7
912.999	2
913.371	-0.5
913.743	0.4
914.115	2.6
914.486	-1.3
914.858	-5.3
915.229	-1.5
915.601	0.4
915.972	12.5
916.343	-0.4
916.715	0.1
917.086	-0.2
917.457	1.1
917.828	1.7
918.199	-3.5
918.57	-2
918.941	0.7
919.312	-0.3
919.682	0.1
920.053	-7
920.424	7
920.794	-0.9
921.165	-5.5
921.536	-1
921.906	2.5
922.276	5.6
922.647	-11.5
923.017	3.9
923.387	-5.8
923.757	-2.3
924.127	-4.3
924.497	4.3
924.867	1.7
925.237	4.6
925.607	-3.3
925.977	-1.9
926.347	1.1
926.716	-5.6
927.086	1.1
927.456	6.6
927.825	-3.8
928.195	3
928.564	1.3
928.933	1.3
929.303	0.6
929.672	-1
930.041	7.2
930.41	15.4
930.779	0.6
931.148	2.2
931.517	3.8
931.886	-7.6
932.255	13.4
932.624	-5.1
932.993	-1.2
933.361	4.8
933.73	6.6
934.098	5.5
934.467	11.5
934.835	12
935.204	-2.6
935.572	-10.6
935.94	4.3
936.308	3.2
936.677	0.8
937.045	9.7
937.413	5.6
937.781	-2
938.149	-3.5
938.516	1.2
938.884	5.5
939.252	7.3
939.62	3
939.987	2.4
940.355	-3
940.722	6.2
941.09	8.9
941.457	6.3
941.825	2.9
942.192	8.2
942.559	-0.4
942.926	5.4
943.293	0.4
943.66	2.9
944.027	1.7
944.394	10
944.761	-3.7
945.128	2.1
945.495	10.7
945.861	4.5
946.228	-6.6
946.595	-1.8
946.961	-5.1
947.328	1.5
947.694	7.7
948.06	12.2
948.427	-4.5
948.793	2.4
949.159	0.1
949.525	-3.3
949.891	0.8
950.257	-2.4
950.623	2
950.989	8.6
951.355	-1.3
951.721	7.7
952.087	3.8
952.452	3.9
952.818	4.3
953.183	1.4
953.549	0.8
953.914	1.7
954.28	-1.4
954.645	7.5
955.01	5.2
955.375	2.2
955.741	10.3
956.106	7.9
956.471	-5.8
956.836	-6
957.201	-6.9
957.566	8.5
957.93	2.8
958.295	5.8
958.66	8.1
959.024	7.9
959.389	-3.4
959.753	4.1
960.118	7.4
960.482	-5.3
960.847	6.3
961.211	0.2
961.575	14.5
961.939	-1.1
962.303	-3.9
962.667	0.3
963.031	-6.8
963.395	-7.8
963.759	-4.4
964.123	1.2
964.487	-4.5
964.851	3.8
965.214	-6.9
965.578	-13.5
965.941	-4.3
966.305	-8.3
966.668	-2.5
967.032	2.1
967.395	0.5
967.758	-3.8
968.121	6.7
968.484	2.4
968.847	-8
969.21	0
969.573	2.1
969.936	-12.8
970.299	-0.2
970.662	-7.1
971.025	-8.8
971.387	-4.7
971.75	2
972.112	2.2
972.475	6
972.837	1.6
973.2	-2.5
973.562	-1.7
973.924	-2.8
974.286	2.9
974.649	-4.8
975.011	-5.1
975.373	-9.4
975.735	-6
976.097	-1.1
976.458	0.5
976.82	1.3
977.182	10
977.544	-2.2
977.905	-6.8
978.267	-3.8
978.628	2.2
978.99	-2.5
979.351	-8
979.712	-7
980.074	-19.9
980.435	-1.4
980.796	0.9
981.157	-1.2
981.518	-1.1
981.879	-9.3
982.24	0.5
982.601	-0.3
982.962	-8.8
983.323	-1.9
983.683	0.3
984.044	3.6
984.404	-24.4
984.765	4.3
985.125	0.5
985.486	1.8
985.846	2.4
986.206	0.4
986.567	-16.5
986.927	2.7
987.287	-5.1
987.647	-3.5
988.007	-0.9
988.367	-22.2
988.727	3.8
989.087	0.8
989.446	1.2
989.806	-2.8
990.166	-1.6
990.525	1.8
990.885	-1.5
991.244	-1.9
991.604	-0.5
991.963	3.5
992.322	-7.6
992.682	-9.7
993.041	-10.3
993.4	2.4
993.759	-10.1
994.118	-9.9
994.477	-2.1
994.836	-7.3
995.195	-6.5
995.553	-7.3
995.912	0.1
996.271	-12.2
996.629	-4
996.988	3.8
997.346	-5.4
997.705	0.4
998.063	-8.1
998.422	2.6
998.78	-7
999.138	-9.3
999.496	-4.3
999.854	5.5
1000.212	-5.4
1000.57	-5.7
1000.928	-2.6
1001.286	3.1
1001.644	-12.7
1002.001	-4.9
1002.359	-1
1002.717	5.8
1003.074	-7.7
1003.432	-5.7
1003.789	-2.3
1004.147	-5.5
1004.504	-7.8
1004.861	-1.7
1005.218	1.2
1005.576	-9
1005.933	-1.4
1006.29	-6.6
1006.647	1.4
1007.004	1.4
1007.36	3
1007.717	-4.5
1008.074	-3.5
1008.431	-0.3
1008.787	2.8
1009.144	1.5
1009.5	-0.9
1009.857	-5.7
1010.213	-8.1
1010.569	-1.3
1010.926	-6
1011.282	-6.1
1011.638	-10.5
1011.994	-8.5
1012.35	-4.1
1012.706	-9.5
1013.062	-15.1
1013.418	-9.5
1013.774	-2.6
1014.13	-8
1014.485	1.2
1014.841	-4.8
1015.197	-6
1015.552	-11.6
1015.907	-0.1
1016.263	-3.1
1016.618	5.2
1016.974	-2.1
1017.329	-2.4
1017.684	-6.1
1018.039	-16.7
1018.394	-7.2
1018.749	-10.1
1019.104	2.9
1019.459	4.1
1019.814	-4.7
1020.168	-16.3
1020.523	-10.1
1020.878	-10.3
1021.232	-5.9
1021.587	-2.6
1021.941	-1.4
1022.296	-19.7
1022.65	-3.7
1023.004	-14
1023.359	-13.4
1023.713	-3
1024.067	1.1
1024.421	4.8
1024.775	-1.3
1025.129	-12
1025.483	-3.5
1025.837	-9.7
1026.19	-4.3
1026.544	-9.9
1026.898	-9.5
1027.251	-6
1027.605	-9.2
1027.958	-10.2
1028.312	-10.6
1028.665	-0.7
1029.018	-0.3
1029.372	-3
1029.725	-6.3
1030.078	-5.2
1030.431	-4.5
1030.784	-2.4
1031.137	-5
1031.49	3.9
1031.843	-7.5
1032.195	-8.1
1032.548	-8.1
1032.901	-6.9
1033.253	-1.3
1033.606	0
1033.958	-3.5
1034.311	-9.9
1034.663	-7.9
1035.016	1
1035.368	-10.6
1035.72	7.5
1036.072	2.7
1036.424	-0.2
1036.776	-7.3
1037.128	-5.4
1037.48	-6
