Data from 0.8bar_Subt2__0__18-26-05-081.txt Node

Date: Thu Jan 06 18:26:05 CET 2022
User: fsatto
Spectrometer: OFX01956
Trigger mode: 0
Integration Time (sec): 1.000000E-2
Scans to average: 10
Nonlinearity correction enabled: false
Boxcar width: 0
Storing dark spectrum: false
XAxis mode: Wavelengths
Number of Pixels in Spectrum: 2136
>>>>>Begin Spectral Data<<<<<
158.236	-5.5
158.705	-8.4
159.174	-5.7
159.643	-7.9
160.112	-15.4
160.582	-4.6
161.051	-10.1
161.52	-13.6
161.988	-8.5
162.457	-15.4
162.926	-6.6
163.395	-11.8
163.864	-4.8
164.332	-9.4
164.801	-11.5
165.269	-10.1
165.738	-14.4
166.206	-15.8
166.675	-9.4
167.143	-11.1
167.612	-12.4
168.08	-13.9
168.548	-12.5
169.016	-0.4
169.484	-13.1
169.952	-10.1
170.42	-11.8
170.888	-10.5
171.356	-6.5
171.824	-8.2
172.292	-10
172.759	-17.1
173.227	-10.5
173.695	-13.6
174.162	-7.7
174.63	-4.1
175.097	-14.5
175.565	-8.1
176.032	-11.3
176.499	-9.7
176.967	-11.4
177.434	-10.7
177.901	-3.3
178.368	-20.2
178.835	-11.3
179.302	-4
179.769	-11.1
180.236	-11.3
180.703	-9
181.17	-3.9
181.637	-8.2
182.103	-7.3
182.57	-6.3
183.036	-3.3
183.503	-3.7
183.97	-12.1
184.436	-5.6
184.902	-6
185.369	-8.9
185.835	-3.8
186.301	-4.7
186.767	-6.6
187.234	-8
187.7	-12.7
188.166	-17.6
188.632	-16.1
189.098	-10.2
189.563	-6.5
190.029	-11
190.495	-12.8
190.961	-16.4
191.426	-13.8
191.892	-11.5
192.358	-16.5
192.823	-9.7
193.289	-16.5
193.754	-11.1
194.219	-12
194.685	-9.6
195.15	-6.2
195.615	-5.5
196.08	-3.7
196.545	-3.2
197.01	-4.4
197.475	-7.1
197.94	-3.3
198.405	-6.4
198.87	-10.8
199.335	-8.6
199.8	-7.2
200.264	27.7
200.729	21.7
201.193	22.1
201.658	23.5
202.122	41.1
202.587	36
203.051	32.5
203.516	26.3
203.98	43.1
204.444	40.6
204.908	36.4
205.372	51.8
205.836	56.9
206.3	67.3
206.764	64.8
207.228	65.2
207.692	65.2
208.156	83.6
208.62	85.2
209.083	84.9
209.547	101.3
210.011	102.7
210.474	114.9
210.938	118.6
211.401	129.7
211.864	144.4
212.328	150.4
212.791	161
213.254	170.6
213.717	187
214.181	192
214.644	225
215.107	243.2
215.57	245
216.033	251.8
216.495	285.4
216.958	334
217.421	358.7
217.884	393
218.346	398.6
218.809	421.4
219.272	470.2
219.734	526.5
220.196	594.8
220.659	648
221.121	664.2
221.584	655.7
222.046	735.6
222.508	803.1
222.97	895.8
223.432	981.1
223.894	1069.5
224.356	1122.7
224.818	1203.7
225.28	1404.3
225.742	1678.4
226.204	2032.5
226.665	2164.6
227.127	2226.8
227.589	2425.7
228.05	2771.8
228.512	3186.8
228.973	3397.5
229.435	3160.3
229.896	2950.1
230.357	3048.1
230.818	3600
231.28	4104.2
231.741	4444.2
232.202	4279.6
232.663	3911.2
233.124	3988.1
233.585	4722
234.046	5594.6
234.507	6067
234.967	5624.6
235.428	5229.3
235.889	5207.8
236.349	5891.9
236.81	7117
237.271	7975.8
237.731	7735.9
238.191	7117.7
238.652	7034.5
239.112	7860.8
239.572	9307.9
240.033	10280.7
240.493	9622
240.953	8382
241.413	8060.3
241.873	8922.9
242.333	10257.4
242.793	10722.6
243.253	10345.9
243.712	10031.8
244.172	10125.9
244.632	10791.6
245.092	12355.4
245.551	13634.5
246.011	14109.5
246.47	14093.8
246.93	14797.4
247.389	16994.8
247.848	19820.1
248.308	21178.1
248.767	21378.5
249.226	20811.6
249.685	20676
250.144	21104
250.603	23046.5
251.062	24733.8
251.521	24369.3
251.98	22992.6
252.439	21969.5
252.897	21911.1
253.356	23018.9
253.815	24190.2
254.273	23959.9
254.732	23029.1
255.19	20600.7
255.649	18938.5
256.107	19083.7
256.566	19819
257.024	21085.4
257.482	20618.9
257.94	19131.2
258.398	19712.4
258.856	20469.4
259.315	20802.5
259.772	20821.1
260.23	19918.4
260.688	18492.6
261.146	17137.9
261.604	16284
262.062	16741.2
262.519	18035.5
262.977	18778.9
263.434	17530.9
263.892	16208.1
264.349	15686
264.807	16156.7
265.264	16269.7
265.721	16202.7
266.179	16089.1
266.636	14944
267.093	13656.8
267.55	13484.9
268.007	14307.3
268.464	15408.2
268.921	15694.2
269.378	14787
269.835	14064.8
270.291	13963.8
270.748	14143.1
271.205	14691
271.661	15091.9
272.118	14591.8
272.574	14451.3
273.031	14444.6
273.487	14059.2
273.944	13897.4
274.4	14079.6
274.856	14324.4
275.312	13738.6
275.768	13071.9
276.225	12643.9
276.681	12587
277.137	12416.8
277.593	12064.5
278.048	11786.6
278.504	11587.6
278.96	11043.9
279.416	10227.5
279.871	9409.6
280.327	9068.1
280.783	9287.9
281.238	9344.5
281.694	9045.6
282.149	8639.2
282.604	8270.6
283.06	7939.9
283.515	7676.4
283.97	7600.3
284.425	7506.4
284.88	7497.3
285.335	7245.6
285.79	6675.4
286.245	5989
286.7	6071
287.155	6302.2
287.61	6280.3
288.064	6240
288.519	6400.3
288.974	6243.3
289.428	5843.8
289.883	5744.6
290.337	5901
290.792	6100.4
291.246	6272.8
291.7	6277.9
292.155	6112.9
292.609	5771.3
293.063	5424.5
293.517	5250.8
293.971	5272.8
294.425	5224.1
294.879	5251.4
295.333	5012.3
295.787	4645.9
296.241	4386.8
296.694	4282.9
297.148	4418.1
297.602	4472.8
298.055	4368.5
298.509	4148.6
298.962	3803
299.416	3625.6
299.869	3520.4
300.322	3537.4
300.775	3420.5
301.229	3261.1
301.682	3047.9
302.135	2813.1
302.588	2599.7
303.041	2482.4
303.494	2358.7
303.947	2257.4
304.4	2135.6
304.852	2003.1
305.305	1881.3
305.758	1736.5
306.21	1620.6
306.663	1530.3
307.115	1475.8
307.568	1465.1
308.02	1487.5
308.473	1384.7
308.925	1290.2
309.377	1196.8
309.829	1133.1
310.282	1100
310.734	1100.4
311.186	1016.7
311.638	945.3
312.09	903.2
312.542	839.6
312.993	804.4
313.445	749
313.897	724
314.349	679.8
314.8	647.1
315.252	612.7
315.703	590.5
316.155	574
316.606	535.8
317.058	522.9
317.509	507.4
317.96	481
318.411	455.2
318.863	457.8
319.314	436
319.765	402.1
320.216	378.5
320.667	338.8
321.117	331.7
321.568	306.3
322.019	318.3
322.47	289.6
322.921	267.5
323.371	241.1
323.822	235.1
324.272	208.9
324.723	193.3
325.173	174.8
325.623	158.9
326.074	153.1
326.524	151.2
326.974	156.6
327.424	232.2
327.874	291.4
328.325	210.6
328.775	151.3
329.224	135.3
329.674	129.3
330.124	113.9
330.574	123.1
331.024	104.9
331.473	102.8
331.923	88.8
332.373	80.2
332.822	70.8
333.272	64.1
333.721	67.7
334.17	52.4
334.62	45.9
335.069	48.5
335.518	44.9
335.967	34.3
336.416	33.2
336.865	36.7
337.314	30.6
337.763	33.8
338.212	26.8
338.661	27.7
339.11	22.1
339.558	23.5
340.007	27.3
340.456	23.2
340.904	15.5
341.353	23.5
341.801	6
342.25	9
342.698	12.9
343.146	10.7
343.595	14.6
344.043	-2
344.491	9
344.939	6.3
345.387	4.2
345.835	7.4
346.283	1.2
346.731	8.7
347.179	-4.4
347.626	1.4
348.074	5.1
348.522	5.8
348.969	5.5
349.417	3.8
349.865	-3.1
350.312	-0.4
350.759	-5.7
351.207	-7.8
351.654	-1.4
352.101	-5.7
352.548	-5.2
352.996	-0.3
353.443	-0.6
353.89	1.4
354.337	-4
354.784	-13.3
355.231	-0.8
355.677	-6.1
356.124	-4.3
356.571	2.6
357.018	-4.6
357.464	-9.1
357.911	-2.3
358.357	9.1
358.804	-1.8
359.25	9.4
359.696	-2.1
360.143	-5.7
360.589	3.7
361.035	-1
361.481	-2.9
361.927	-1.3
362.373	-5.5
362.819	1.9
363.265	1.6
363.711	-11
364.157	-7
364.603	2.5
365.048	1.9
365.494	-3.7
365.94	-7.9
366.385	-13.1
366.831	-5.7
367.276	-0.4
367.722	-4.6
368.167	-4.9
368.612	-1.5
369.057	-7.7
369.503	-0.9
369.948	-9.9
370.393	-1.4
370.838	-4.7
371.283	-5.9
371.728	-19.3
372.173	-5.1
372.617	-5.5
373.062	-11.6
373.507	-3.4
373.951	-9.9
374.396	2.7
374.841	-8.1
375.285	-4.4
375.729	-11.8
376.174	-5.5
376.618	-7.2
377.062	-4.6
377.507	-4.1
377.951	-7.5
378.395	-10
378.839	-3.3
379.283	-6.7
379.727	-4.6
380.171	1.1
380.615	-3.7
381.059	-6.6
381.502	-4.4
381.946	-9.7
382.39	-7.3
382.833	-2.6
383.277	-8.7
383.72	-5.1
384.164	-10
384.607	-13.7
385.05	1.4
385.494	-3
385.937	0
386.38	-9.3
386.823	-6.5
387.266	-9
387.709	-1.1
388.152	-11
388.595	-14.6
389.038	0.1
389.481	-12.8
389.923	-8.3
390.366	-7.6
390.809	-15.5
391.251	1.3
391.694	-0.2
392.136	-1.5
392.579	-4.2
393.021	-8.9
393.463	-8.7
393.906	-7.7
394.348	0.5
394.79	5.7
395.232	-0.3
395.674	-12.4
396.116	-2
396.558	-5.8
397	-2.3
397.442	-7.8
397.884	-11.9
398.325	4.4
398.767	-2.2
399.209	-2.7
399.65	-3.7
400.092	-4
400.533	-2.5
400.974	-18.8
401.416	-18.2
401.857	-1.1
402.298	-7
402.74	-12.7
403.181	2.1
403.622	-1.3
404.063	5.6
404.504	-2.1
404.945	-4.2
405.386	4.2
405.826	-5.7
406.267	-11.7
406.708	-7.8
407.149	-5.2
407.589	-3.6
408.03	-8.5
408.47	-9.2
408.911	-9
409.351	-7.6
409.791	-4.5
410.232	-2.5
410.672	-3.8
411.112	-3
411.552	-1.8
411.992	-0.6
412.432	-6
412.872	2
413.312	-4
413.752	-5.3
414.192	-4
414.632	-13.6
415.071	-5
415.511	-5.6
415.951	-4.8
416.39	-2.5
416.83	-12.4
417.269	-8.1
417.708	-0.7
418.148	-6.6
418.587	-12.4
419.026	-11.8
419.465	-4.7
419.904	7.4
420.344	-5.3
420.783	-13.9
421.221	-3.7
421.66	-6.4
422.099	-5.1
422.538	-6.5
422.977	-3.8
423.415	-9.4
423.854	0.2
424.293	-3.9
424.731	1.2
425.17	-9.3
425.608	-0.2
426.046	-8.7
426.485	-6.8
426.923	-6.4
427.361	-9.1
427.799	-3.1
428.237	-7.2
428.675	-4.3
429.113	-8.1
429.551	-4.6
429.989	-7.8
430.427	-3.6
430.865	-6.6
431.303	-4.7
431.74	-2.4
432.178	-10.5
432.615	-17.3
433.053	-11.7
433.49	-2.8
433.928	0.8
434.365	4.9
434.802	-3.5
435.24	-3.8
435.677	-2.4
436.114	-3.6
436.551	0.7
436.988	4.2
437.425	-1.2
437.862	-9.8
438.299	-5.1
438.736	-2.9
439.172	-2.9
439.609	-16.5
440.046	-8.9
440.482	-4.2
440.919	-3.5
441.355	-7
441.792	-4.5
442.228	-8.2
442.665	-3.2
443.101	-8.6
443.537	-8.6
443.973	1.6
444.409	1.9
444.845	2.5
445.281	-5.2
445.717	-10.6
446.153	-6.9
446.589	-11.9
447.025	2.1
447.461	4
447.896	-5.8
448.332	5.9
448.768	-7.6
449.203	-13.8
449.639	-11
450.074	3.6
450.509	-9
450.945	-1.3
451.38	1.5
451.815	-16.2
452.25	-6.4
452.685	-2.9
453.12	-8.6
453.555	-10.5
453.99	-3.6
454.425	-10.1
454.86	-3.9
455.295	-9.3
455.73	2.9
456.164	0.3
456.599	-8.2
457.033	4.6
457.468	-6.4
457.902	-7.9
458.337	9.3
458.771	-5.7
459.205	-8.1
459.64	-0.3
460.074	2.6
460.508	-13.6
460.942	-6.9
461.376	-6
461.81	-16.4
462.244	0
462.678	-13.3
463.112	1.6
463.545	-6.7
463.979	-4.5
464.413	-1.6
464.846	-7.1
465.28	3.5
465.713	-6.6
466.147	-2.5
466.58	0.9
467.014	-13.9
467.447	5.9
467.88	-3.8
468.313	5.8
468.746	-2.9
469.179	-10.3
469.612	-11.9
470.045	-1.3
470.478	-0.9
470.911	0.1
471.344	1.1
471.777	-4.4
472.209	-6.9
472.642	-8.8
473.074	-8.5
473.507	8
473.939	0.7
474.372	-3.1
474.804	5
475.236	4.8
475.669	3.1
476.101	13.1
476.533	5.4
476.965	3.5
477.397	12
477.829	2.9
478.261	0.1
478.693	8.8
479.125	12.5
479.557	5.5
479.988	-1.9
480.42	4.4
480.852	14
481.283	5.8
481.715	9.3
482.146	1.1
482.577	5.7
483.009	-0.4
483.44	6
483.871	-8.8
484.302	5.3
484.734	5.4
485.165	-2.4
485.596	1.4
486.027	14.7
486.457	6.8
486.888	3.6
487.319	2.8
487.75	10
488.181	5.6
488.611	-3
489.042	-2
489.472	0.1
489.903	8.4
490.333	-4.2
490.764	0.7
491.194	-4.2
491.624	9
492.054	-5.2
492.484	0.8
492.915	1.3
493.345	1.9
493.775	-2.6
494.204	1.7
494.634	2.2
495.064	-3.1
495.494	-5.6
495.924	1.5
496.353	-10.5
496.783	-4.7
497.212	-5.3
497.642	3.8
498.071	0.7
498.501	-3.3
498.93	-3.1
499.359	-0.9
499.789	-8.2
500.218	-3.6
500.647	-0.4
501.076	-2.3
501.505	-1
501.934	1.9
502.363	-8.1
502.792	-9.7
503.221	-6.8
503.649	-1.1
504.078	-1.7
504.507	3.5
504.935	-6.8
505.364	-3
505.792	6.3
506.221	-6.4
506.649	-10.4
507.077	-5.8
507.506	-14
507.934	-8.8
508.362	-2
508.79	4.2
509.218	-13.9
509.646	2.5
510.074	-6.6
510.502	-17.9
510.93	-12.1
511.357	-2.5
511.785	-9.5
512.213	-5
512.64	-12.7
513.068	-4.9
513.496	-5.7
513.923	2.4
514.35	-6.8
514.778	-16.6
515.205	-13.9
515.632	2.5
516.059	-4.8
516.486	-3.7
516.914	-12.9
517.341	-1.3
517.768	0
518.194	-6.7
518.621	-4.6
519.048	-14.9
519.475	-11.9
519.902	-7
520.328	-0.5
520.755	-9.1
521.181	-12.8
521.608	-9.8
522.034	-9.1
522.461	-2.5
522.887	-6.7
523.313	-5.2
523.739	-16.6
524.165	3.5
524.592	-10.2
525.018	-1.7
525.444	-6.3
525.869	1.6
526.295	1.9
526.721	-4.9
527.147	-2.6
527.573	5.2
527.998	0.3
528.424	-7
528.849	-9
529.275	1.8
529.7	-2.3
530.126	6.4
530.551	-9
530.976	0
531.402	-2.5
531.827	-1.5
532.252	0.5
532.677	-3
533.102	2.7
533.527	1.4
533.952	0.5
534.377	-8.5
534.801	-1.8
535.226	5.3
535.651	-7.7
536.076	-6.4
536.5	-9.3
536.925	-1
537.349	5.3
537.773	-9.5
538.198	-7.2
538.622	-6.5
539.046	-7.4
539.471	-1.9
539.895	-3.6
540.319	-2.1
540.743	-0.4
541.167	-6
541.591	-16.1
542.015	-3.2
542.438	-4.1
542.862	-6.6
543.286	-8.1
543.71	-2
544.133	-2.9
544.557	-3.5
544.98	-8.1
545.404	-4.2
545.827	-3.9
546.25	-5.1
546.674	1.6
547.097	-0.4
547.52	3.4
547.943	-15.9
548.366	-2.6
548.789	-5.6
549.212	-1.3
549.635	-5.6
550.058	-6.5
550.481	-1.6
550.903	-6
551.326	2.5
551.749	-5.2
552.171	-6.5
552.594	2.1
553.016	-3.2
553.438	-6.8
553.861	-0.1
554.283	-5.4
554.705	-1.9
555.128	-0.9
555.55	3.2
555.972	-8.6
556.394	-8.5
556.816	1.4
557.238	-6.3
557.659	-4.1
558.081	-0.3
558.503	-1.8
558.925	-9.4
559.346	-10.2
559.768	0.5
560.189	-4.6
560.611	-5.2
561.032	5.2
561.454	-8.8
561.875	2.7
562.296	-4.6
562.718	2.7
563.139	-4.8
563.56	-7.8
563.981	-7.2
564.402	-8.1
564.823	-2.4
565.244	0.8
565.664	-0.8
566.085	8.5
566.506	-13.3
566.927	1.1
567.347	-7
567.768	-5.7
568.188	3.8
568.609	-13.3
569.029	0.3
569.449	-3.2
569.87	-4.8
570.29	-7
570.71	-12
571.13	-8.8
571.55	-18.5
571.97	-3.5
572.39	2.8
572.81	-11.1
573.23	-3.3
573.65	-6.1
574.069	-5.8
574.489	-5.7
574.909	-2
575.328	-2.8
575.748	-4.1
576.167	-6.2
576.587	-1.8
577.006	-5.8
577.425	-3.4
577.844	1.7
578.264	-6.9
578.683	-14.2
579.102	-4
579.521	-2.1
579.94	-9.8
580.359	-3.1
580.778	-6.9
581.196	-11.9
581.615	-11.1
582.034	-14.5
582.452	-12.2
582.871	-10.8
583.29	-5.5
583.708	-9.6
584.126	-4.8
584.545	-12.2
584.963	-15.8
585.381	-5.3
585.8	-7.6
586.218	0.3
586.636	-2.2
587.054	-5.2
587.472	-8.7
587.89	-1.7
588.308	-11
588.725	-6.6
589.143	-6.4
589.561	-5.1
589.979	-11.2
590.396	-3.9
590.814	-2
591.231	-2.7
591.649	-13
592.066	-13.8
592.483	-10.5
592.901	2.5
593.318	-2.8
593.735	-5.3
594.152	-4.3
594.569	-8.3
594.986	-14.8
595.403	-12.1
595.82	4.5
596.237	2.5
596.654	-10.2
597.07	-13.5
597.487	-4.2
597.904	-8.2
598.32	-16.9
598.737	-6
599.153	-3.4
599.57	5.1
599.986	-2.3
600.402	-0.8
600.818	-7.9
601.235	-13
601.651	-4.5
602.067	-10.7
602.483	7.4
602.899	-16.5
603.315	-2.2
603.73	-4.4
604.146	-12.3
604.562	-11.6
604.978	-12.7
605.393	-14.8
605.809	-12.3
606.224	-4.8
606.64	-13.3
607.055	-9
607.471	-24.9
607.886	-1.9
608.301	-3
608.716	-12.7
609.131	-9.3
609.547	-6.1
609.962	7.2
610.377	-1.9
610.791	-12.5
611.206	-26.7
611.621	-19.9
612.036	-6
612.451	-5.8
612.865	-16.2
613.28	-8.1
613.694	-13.2
614.109	-5.6
614.523	-10.5
614.938	-1.7
615.352	-1.5
615.766	-1.4
616.18	9.8
616.595	8.5
617.009	-3.6
617.423	-5.5
617.837	-3.5
618.251	-6.1
618.664	-3.5
619.078	1.6
619.492	-3.8
619.906	-10.1
620.319	0.4
620.733	6.9
621.146	-1.5
621.56	15.4
621.973	4
622.387	13.1
622.8	5.5
623.213	5
623.627	4
624.04	6.8
624.453	4.2
624.866	11.7
625.279	12.1
625.692	6.9
626.105	12.4
626.518	6.3
626.93	6.4
627.343	15.4
627.756	11.9
628.168	16.4
628.581	20.1
628.993	12.5
629.406	16.4
629.818	18.5
630.231	25.8
630.643	17.2
631.055	32.9
631.467	36.2
631.879	32.6
632.291	34.7
632.703	39.8
633.115	36.3
633.527	52.2
633.939	55.2
634.351	63.5
634.763	66.4
635.174	61.3
635.586	84.2
635.997	95.9
636.409	80.5
636.82	92
637.232	92.6
637.643	93.2
638.054	109.3
638.466	108.8
638.877	109.8
639.288	118.7
639.699	118.1
640.11	126.1
640.521	131.1
640.932	123.6
641.343	116.2
641.753	126.1
642.164	134.9
642.575	138.6
642.986	136.5
643.396	123.7
643.807	125.1
644.217	137.5
644.627	127.3
645.038	121.6
645.448	132.9
645.858	125.6
646.269	124
646.679	129
647.089	109.4
647.499	124.1
647.909	111.1
648.319	120.6
648.728	97.6
649.138	102.5
649.548	99.9
649.958	89.5
650.367	93.4
650.777	84.7
651.186	75.1
651.596	71.9
652.005	72.9
652.415	70
652.824	72.1
653.233	64.4
653.642	73.7
654.052	74.5
654.461	78.3
654.87	65.6
655.279	60.6
655.688	72.3
656.096	59.5
656.505	68.2
656.914	72.2
657.323	61.9
657.731	67.5
658.14	73.9
658.548	61.6
658.957	68.2
659.365	52
659.774	74
660.182	55.8
660.59	69.1
660.998	66.1
661.407	64
661.815	65.9
662.223	55.5
662.631	64.8
663.039	56.2
663.446	56.4
663.854	41.7
664.262	41.9
664.67	51.3
665.077	52.1
665.485	48.1
665.892	46
666.3	36
666.707	48.6
667.115	35.6
667.522	30.9
667.929	38.1
668.337	35.3
668.744	28.3
669.151	28.8
669.558	31.4
669.965	26.1
670.372	15.1
670.779	12.3
671.185	17
671.592	20.9
671.999	8.6
672.405	12.5
672.812	9.2
673.219	4.7
673.625	7.5
674.032	7.8
674.438	0.1
674.844	4.1
675.25	5.8
675.657	3.4
676.063	-2.2
676.469	-2.5
676.875	-1.6
677.281	10.3
677.687	-6.2
678.093	3.4
678.499	-17.2
678.904	3.4
679.31	0.8
679.716	-2
680.121	-11.2
680.527	-7.7
680.932	-8.8
681.338	-12.2
681.743	-8.3
682.148	-2.8
682.554	-3.5
682.959	-7.3
683.364	-2.2
683.769	11.9
684.174	-2.6
684.579	-11.9
684.984	-3.8
685.389	-9.4
685.794	-15.4
686.199	-5
686.603	-5
687.008	-10.3
687.413	-10.9
687.817	2.8
688.222	-5.3
688.626	-1.6
689.03	-9.1
689.435	-0.1
689.839	-9.8
690.243	-6
690.647	-4.6
691.051	4.1
691.456	-3.3
691.859	-10.2
692.263	-3.8
692.667	-9
693.071	-13.2
693.475	-11.1
693.879	-5.7
694.282	-2.5
694.686	-13.6
695.089	3
695.493	-0.5
695.896	-4.7
696.3	-5.7
696.703	-5.5
697.106	-5.2
697.509	-0.4
697.913	-7.3
698.316	-3.8
698.719	-1.1
699.122	0.1
699.525	-1.8
699.928	-2.6
700.33	-0.6
700.733	-6.9
701.136	-13.3
701.539	-7.5
701.941	-18.2
702.344	-14.8
702.746	-9.6
703.149	-11.9
703.551	-5.7
703.953	-4.2
704.356	7.3
704.758	-12.4
705.16	-1.5
705.562	-8.3
705.964	-7.7
706.366	-6
706.768	-6.6
707.17	-4.2
707.572	-7.8
707.973	-17.6
708.375	-5.4
708.777	-8
709.178	1.2
709.58	-2
709.981	-8.5
710.383	-11.5
710.784	-7
711.186	-7.2
711.587	-7.8
711.988	-3.7
712.389	-0.1
712.79	-4.5
713.191	-13.6
713.592	-14.7
713.993	-5.5
714.394	-2.5
714.795	-7.9
715.196	-4.3
715.596	-10.3
715.997	-9.3
716.398	-12.2
716.798	-6.8
717.199	0.1
717.599	-0.2
718	-7.2
718.4	-4.7
718.8	-3.9
719.2	-7.5
719.6	-4
720.001	-14.5
720.401	-6.3
720.801	-16.7
721.201	-9.2
721.6	-5.6
722	-5.1
722.4	-10.6
722.8	-8.1
723.199	-3.1
723.599	-12.4
723.998	-9.8
724.398	-7.4
724.797	-11
725.197	-9.4
725.596	-8.4
725.995	0.4
726.394	-18.7
726.794	2
727.193	3.4
727.592	-2.5
727.991	-0.7
728.39	-6.6
728.789	-13.6
729.187	-1.8
729.586	0.9
729.985	-11.5
730.383	-13.6
730.782	13.9
731.181	-9.1
731.579	-2.1
731.977	-2.3
732.376	-8.1
732.774	-6.8
733.172	-5.7
733.571	-9.9
733.969	-10.7
734.367	0.4
734.765	-4.9
735.163	-4.3
735.561	-1.1
735.959	8.5
736.356	0.7
736.754	1.6
737.152	9.1
737.55	5.4
737.947	-3.6
738.345	11
738.742	4.3
739.14	11
739.537	4.1
739.934	13.6
740.331	14.7
740.729	1.3
741.126	14.9
741.523	4
741.92	15.9
742.317	11.4
742.714	6.5
743.111	15.4
743.507	7.8
743.904	0
744.301	12.3
744.697	8.8
745.094	14.6
745.491	17.2
745.887	20.4
746.283	22.6
746.68	5.9
747.076	12.9
747.472	16.9
747.869	8.2
748.265	7.7
748.661	-0.7
749.057	3.1
749.453	10.6
749.849	21
750.244	14.4
750.64	7.7
751.036	6
751.432	12.1
751.827	17.7
752.223	16.1
752.618	26.3
753.014	20.6
753.409	12.1
753.805	13.1
754.2	-1.3
754.595	8.2
754.99	9.2
755.385	11.8
755.78	12.7
756.175	17.1
756.57	12
756.965	10.7
757.36	6.8
757.755	16.5
758.15	14.6
758.544	26.8
758.939	30
759.334	30.4
759.728	23.9
760.122	34.7
760.517	31.3
760.911	38.5
761.306	27.7
761.7	32.4
762.094	27
762.488	36.7
762.882	29.9
763.276	31.6
763.67	31.6
764.064	39.3
764.458	47.9
764.852	41.7
765.245	44.5
765.639	51.1
766.033	40
766.426	48.3
766.82	54.2
767.213	52
767.606	66.9
768	49.7
768.393	62
768.786	42.9
769.179	55.9
769.572	60.2
769.966	56.9
770.358	50.5
770.751	59
771.144	68.3
771.537	68.9
771.93	68.3
772.323	56.2
772.715	55
773.108	58.4
773.5	55
773.893	48.4
774.285	57.2
774.678	40.1
775.07	48.6
775.462	41.6
775.854	42.9
776.247	41.5
776.639	50
777.031	44.6
777.423	33.5
777.815	34.2
778.207	32.4
778.598	43.9
778.99	37.2
779.382	50.3
779.773	53.5
780.165	46.6
780.557	50.8
780.948	52.7
781.339	62.3
781.731	58
782.122	71.3
782.513	66.4
782.905	66.2
783.296	56.6
783.687	49.5
784.078	55.7
784.469	63.1
784.86	52.1
785.251	64.4
785.641	53.5
786.032	55
786.423	53.2
786.813	64.8
787.204	62
787.594	52.7
787.985	48.1
788.375	56.6
788.766	51.9
789.156	30.8
789.546	35.1
789.936	31.7
790.326	36.4
790.717	27.3
791.107	29.8
791.497	28.5
791.886	21.6
792.276	25.4
792.666	23
793.056	20
793.445	20.2
793.835	27.8
794.225	26.6
794.614	19.6
795.004	20.8
795.393	15
795.782	22.1
796.172	13.4
796.561	12.7
796.95	20.4
797.339	21.3
797.728	3.8
798.117	12.9
798.506	29.2
798.895	7
799.284	18.6
799.673	15.7
800.061	19.6
800.45	13.4
800.839	6.2
801.227	11.3
801.616	0.3
802.004	8.1
802.392	9.8
802.781	6.7
803.169	1.4
803.557	-2.2
803.945	4.6
804.333	7.9
804.721	0.4
805.109	3.7
805.497	0.6
805.885	-4.9
806.273	4.5
806.661	6.1
807.048	2.2
807.436	0.6
807.824	2.8
808.211	-7.3
808.599	-2.6
808.986	-2.3
809.373	-5.7
809.761	-5.6
810.148	0.7
810.535	-6
810.922	-5.8
811.309	-3.1
811.696	-11
812.083	-14.6
812.47	-11.5
812.857	-2.7
813.244	-8.8
813.631	0
814.017	-12.7
814.404	-5.6
814.791	-15.6
815.177	-5.1
815.564	-2.6
815.95	-1.4
816.336	4
816.723	-1.2
817.109	-7
817.495	-5.5
817.881	0.6
818.267	-13.9
818.653	-16.7
819.039	-3.2
819.425	-7.2
819.811	-7.6
820.197	-7.7
820.582	-7
820.968	-4.2
821.354	0.3
821.739	-2.3
822.125	-10.5
822.51	7.6
822.895	-9.2
823.281	0.5
823.666	-3.8
824.051	-3.9
824.436	-4.7
824.822	-15.6
825.207	-12.3
825.592	-0.9
825.976	-21.7
826.361	-7.8
826.746	-9.5
827.131	-9.3
827.516	-8.9
827.9	0.1
828.285	-17.8
828.669	-13.9
829.054	-1.8
829.438	-6.1
829.823	-10
830.207	-4.4
830.591	-13.3
830.975	-2.2
831.36	-6.8
831.744	-17.2
832.128	-17.9
832.512	-3.7
832.895	-9.7
833.279	-10.4
833.663	-6.5
834.047	3.9
834.431	-10.2
834.814	-17.6
835.198	-9.4
835.581	-10
835.965	-8
836.348	-13.8
836.731	-8
837.115	-11.6
837.498	-10.1
837.881	0.4
838.264	-13.5
838.647	-8.4
839.03	-4.4
839.413	-6
839.796	0.1
840.179	-9.1
840.562	-3.5
840.944	-12.2
841.327	-8.3
841.71	-7.8
842.092	0.7
842.475	2
842.857	-14.4
843.24	-14.7
843.622	-9.6
844.004	-16.2
844.386	-6.8
844.769	-7.3
845.151	-3.1
845.533	-3.4
845.915	-0.7
846.297	-9.9
846.678	-1.4
847.06	-3.2
847.442	-14.1
847.824	-3.4
848.205	-4.6
848.587	4.1
848.968	-7.2
849.35	1.7
849.731	-3.8
850.113	-5.1
850.494	-8
850.875	-10.5
851.256	-12.7
851.638	-6.6
852.019	-12.5
852.4	-15.4
852.781	-10.6
853.161	-7
853.542	-10.3
853.923	-10.7
854.304	-6.6
854.685	-1.3
855.065	-2.9
855.446	-12.5
855.826	-14.4
856.207	-6.6
856.587	-3.7
856.967	-6.9
857.348	-11.5
857.728	-9.3
858.108	-11.9
858.488	2.2
858.868	0.9
859.248	-12.8
859.628	-11.7
860.008	-14
860.388	-6.8
860.768	-5.9
861.147	-2.6
861.527	-4.2
861.907	-12.4
862.286	-10.4
862.666	-11.9
863.045	-8.5
863.424	-8.5
863.804	-6.4
864.183	-7.6
864.562	-6.8
864.941	-7
865.32	-5.9
865.699	-4.8
866.078	-7.4
866.457	-15.8
866.836	-11.6
867.215	-10.2
867.594	0
867.972	-13.5
868.351	-4.7
868.729	-6.2
869.108	-2
869.486	-16.4
869.865	-6.6
870.243	-8.7
870.621	-8.3
871	-5.9
871.378	-15.9
871.756	2.2
872.134	-2.6
872.512	-10.4
872.89	-12
873.268	-7.5
873.646	-10.4
874.023	-2.3
874.401	-5.1
874.779	1.3
875.156	-5.1
875.534	-3.3
875.911	-4.4
876.289	-16.9
876.666	-12.5
877.043	-4.8
877.421	-16.4
877.798	-7.3
878.175	-7
878.552	3
878.929	0.6
879.306	-13
879.683	2.7
880.06	0.6
880.437	-10.7
880.813	-0.3
881.19	-0.4
881.567	-4.5
881.943	-11.4
882.32	-5.9
882.696	-11.1
883.073	-9.4
883.449	-6.4
883.825	-12
884.202	-5.1
884.578	-4.4
884.954	-7.5
885.33	-11.2
885.706	-9.3
886.082	-3.5
886.458	-6.2
886.834	-7
887.209	-1
887.585	-8.5
887.961	-5.3
888.336	-0.6
888.712	1.1
889.087	-5
889.463	-11.1
889.838	-18.8
890.213	-11.6
890.589	-5.6
890.964	-13.7
891.339	-5
891.714	-15.7
892.089	-11.9
892.464	-5.2
892.839	-4.1
893.214	-5.8
893.589	-10.8
893.963	-10
894.338	-4.1
894.713	-4.7
895.087	7.9
895.462	-13.7
895.836	4.1
896.211	-2.2
896.585	-6.8
896.959	-10.9
897.334	-5.6
897.708	-5.1
898.082	-7.4
898.456	-13.7
898.83	-7.1
899.204	5.8
899.578	0.9
899.952	-4.8
900.325	-6.7
900.699	3.9
901.073	-0.1
901.446	-3.3
901.82	-0.8
902.193	-8.4
902.567	-2.4
902.94	0.1
903.313	-10.6
903.687	-2.6
904.06	4.9
904.433	-5
904.806	-0.4
905.179	-7.5
905.552	7.8
905.925	5.1
906.298	-4.5
906.671	-14.2
907.043	-4.7
907.416	-9.6
907.789	8.6
908.161	-1.9
908.534	-7.7
908.906	-11.8
909.279	-9.4
909.651	-0.9
910.023	-10.8
910.396	-13.8
910.768	-1.3
911.14	-6.7
911.512	-13.9
911.884	-7.4
912.256	-5.7
912.628	-5
912.999	1.9
913.371	-5.5
913.743	-7.5
914.115	-1.6
914.486	-9
914.858	-6.6
915.229	-4.2
915.601	-2.5
915.972	6
916.343	-1.1
916.715	-1.4
917.086	-5.2
917.457	-8.7
917.828	-0.6
918.199	-3.9
918.57	-2.6
918.941	-11.2
919.312	3.6
919.682	-7.2
920.053	-1.6
920.424	2.7
920.794	-2.3
921.165	-6.8
921.536	-4.6
921.906	3.4
922.276	3.9
922.647	-5.3
923.017	5.4
923.387	-2.1
923.757	-3.4
924.127	0.9
924.497	-1.2
924.867	-6.7
925.237	-2.5
925.607	4.2
925.977	-1.2
926.347	-0.4
926.716	-10
927.086	1.7
927.456	6.2
927.825	9.4
928.195	-0.3
928.564	3.4
928.933	2.7
929.303	-6.9
929.672	1.2
930.041	1.5
930.41	3
930.779	0.9
931.148	-0.8
931.517	-1.3
931.886	-11.6
932.255	-0.9
932.624	-0.1
932.993	-4.3
933.361	5.3
933.73	0.1
934.098	0.8
934.467	7.1
934.835	8.6
935.204	-3
935.572	-10.8
935.94	5.1
936.308	-1.1
936.677	-4.3
937.045	3.7
937.413	3.8
937.781	1.7
938.149	7
938.516	5.4
938.884	1.2
939.252	-2.4
939.62	3.5
939.987	10.7
940.355	-0.9
940.722	7
941.09	-0.9
941.457	3.8
941.825	-2.5
942.192	1.4
942.559	-2.7
942.926	1.3
943.293	-4.7
943.66	4.4
944.027	5.1
944.394	1.9
944.761	-3.5
945.128	-0.3
945.495	5.4
945.861	-8.3
946.228	-7
946.595	0.5
946.961	-2.4
947.328	-0.4
947.694	2.9
948.06	1.9
948.427	5.1
948.793	-5.5
949.159	8.3
949.525	1.3
949.891	-2.1
950.257	-8.3
950.623	-3
950.989	0.2
951.355	3.3
951.721	4.4
952.087	-8.5
952.452	-4.6
952.818	-3.5
953.183	-3.9
953.549	-5.1
953.914	-5.1
954.28	-5.3
954.645	-6
955.01	0.6
955.375	-6.7
955.741	10.7
956.106	2.1
956.471	-2.9
956.836	-9.4
957.201	-10.3
957.566	-3.5
957.93	1
958.295	3.9
958.66	-2.9
959.024	-7.8
959.389	-2.2
959.753	1
960.118	-2
960.482	-4.5
960.847	5.6
961.211	-1.1
961.575	0.4
961.939	-5.8
962.303	-7.6
962.667	4.2
963.031	-11.6
963.395	-9.1
963.759	0
964.123	5.7
964.487	-9.6
964.851	-0.5
965.214	-6.4
965.578	-7.3
965.941	-8.8
966.305	-7.4
966.668	-4.4
967.032	-4.4
967.395	-3.7
967.758	5.3
968.121	-0.2
968.484	-6
968.847	-9
969.21	-3.1
969.573	-1.6
969.936	-4.5
970.299	-2.7
970.662	-6.2
971.025	-15.5
971.387	-5.1
971.75	-6.8
972.112	-7.3
972.475	1.8
972.837	5.1
973.2	-11.6
973.562	0.7
973.924	-4.7
974.286	-1.9
974.649	-8.7
975.011	-6.5
975.373	-16.6
975.735	-7.9
976.097	-3.8
976.458	2.2
976.82	-11.2
977.182	2.8
977.544	-9
977.905	-3.3
978.267	-4.6
978.628	0.4
978.99	-2.7
979.351	-2
979.712	-11.6
980.074	-14.5
980.435	-4.7
980.796	-2.1
981.157	-9.9
981.518	-3.2
981.879	-12.9
982.24	-8
982.601	-1.3
982.962	-7.8
983.323	-1.7
983.683	-1.7
984.044	1
984.404	-15
984.765	-3.2
985.125	-3
985.486	-4.3
985.846	-1.7
986.206	-6.7
986.567	-4.4
986.927	-8.4
987.287	-6.7
987.647	-12.4
988.007	-2.1
988.367	-19.4
988.727	-5.5
989.087	-0.1
989.446	-10.2
989.806	-12
990.166	-8.3
990.525	-1.9
990.885	-9.7
991.244	-3.6
991.604	-6.6
991.963	5.3
992.322	-4.7
992.682	-7.6
993.041	-14.4
993.4	-4
993.759	-11
994.118	-14.1
994.477	-3.8
994.836	-12
995.195	-2.7
995.553	-10.2
995.912	-7
996.271	-3.8
996.629	-7.8
996.988	-2
997.346	-8.1
997.705	-8.5
998.063	-4.6
998.422	-9.3
998.78	-10.9
999.138	-5.5
999.496	-6.6
999.854	-4.7
1000.212	-12.4
1000.57	-7.4
1000.928	-8.9
1001.286	-7.7
1001.644	-11.3
1002.001	-2.8
1002.359	-3
1002.717	-2.5
1003.074	-12.9
1003.432	-4.4
1003.789	-7.4
1004.147	-3.4
1004.504	-15.6
1004.861	-2.6
1005.218	2.6
1005.576	-2
1005.933	-4.5
1006.29	-17.6
1006.647	-3.2
1007.004	0
1007.36	-5.8
1007.717	-7.5
1008.074	-11.1
1008.431	-0.7
1008.787	-1.2
1009.144	-8
1009.5	-14.3
1009.857	-12.6
1010.213	-14.4
1010.569	-5.5
1010.926	-9.8
1011.282	-12.1
1011.638	-13.2
1011.994	2.6
1012.35	-5.7
1012.706	-10.3
1013.062	-15.3
1013.418	-18.1
1013.774	-6.9
1014.13	-1.2
1014.485	-15.4
1014.841	-5.4
1015.197	-11.5
1015.552	-9.1
1015.907	-6.5
1016.263	-5.1
1016.618	5.2
1016.974	-3.7
1017.329	-7
1017.684	-9.1
1018.039	-13.8
1018.394	-9.9
1018.749	-17.3
1019.104	0.1
1019.459	-5.2
1019.814	-9.9
1020.168	-9.4
1020.523	-8.8
1020.878	-11.1
1021.232	-5.8
1021.587	-8.6
1021.941	-11.6
1022.296	-14.9
1022.65	-8.5
1023.004	-3
1023.359	-10.8
1023.713	-7.8
1024.067	-5.2
1024.421	-2.3
1024.775	-3.7
1025.129	-10.1
1025.483	-2.1
1025.837	-10.5
1026.19	-7.6
1026.544	-12.8
1026.898	-13.7
1027.251	-13.9
1027.605	-2.6
1027.958	-12.6
1028.312	-1.8
1028.665	-7.6
1029.018	-6.9
1029.372	-2
1029.725	-2
1030.078	-10.3
1030.431	-5.9
1030.784	-4.5
1031.137	-9.3
1031.49	-1.3
1031.843	-14.4
1032.195	-8.3
1032.548	-10.6
1032.901	-8.2
1033.253	0.4
1033.606	1
1033.958	-5.6
1034.311	-4.6
1034.663	-1.6
1035.016	-4.6
1035.368	-14.5
1035.72	-5.5
1036.072	0.8
1036.424	-1.2
1036.776	-10.3
1037.128	-10
1037.48	-19.3
