Data from 1.0bar_Subt2__0__18-26-44-940.txt Node

Date: Thu Jan 06 18:26:44 CET 2022
User: fsatto
Spectrometer: OFX01956
Trigger mode: 0
Integration Time (sec): 1.000000E-2
Scans to average: 10
Nonlinearity correction enabled: false
Boxcar width: 0
Storing dark spectrum: false
XAxis mode: Wavelengths
Number of Pixels in Spectrum: 2136
>>>>>Begin Spectral Data<<<<<
158.236	7.4
158.705	3.7
159.174	7.7
159.643	4.2
160.112	-1
160.582	2.1
161.051	3.9
161.52	5.7
161.988	-1.3
162.457	0.5
162.926	-0.9
163.395	0.5
163.864	5
164.332	5
164.801	6.8
165.269	5.2
165.738	0.9
166.206	-3
166.675	2.6
167.143	-2.5
167.612	2
168.08	-1.6
168.548	-6.7
169.016	7
169.484	-1.1
169.952	1.5
170.42	-3.4
170.888	0.6
171.356	2.7
171.824	1.8
172.292	-2.3
172.759	-9.4
173.227	-1.6
173.695	-1.6
174.162	0.9
174.63	-0.5
175.097	-3.5
175.565	2.5
176.032	-2.2
176.499	4.3
176.967	8.2
177.434	-8.9
177.901	2.9
178.368	-7.2
178.835	-8
179.302	5
179.769	5
180.236	-6.3
180.703	0.2
181.17	0.6
181.637	1.2
182.103	2.1
182.57	5.2
183.036	-2.1
183.503	-0.3
183.97	-5.1
184.436	-0.9
184.902	4.6
185.369	-0.9
185.835	5.8
186.301	6.9
186.767	4.9
187.234	-3.8
187.7	0.4
188.166	-5.2
188.632	1.5
189.098	0.2
189.563	0.9
190.029	1.5
190.495	0.1
190.961	-4.4
191.426	-7.1
191.892	-2.9
192.358	-3.6
192.823	3.6
193.289	-2.7
193.754	0.4
194.219	1.2
194.685	-2.7
195.15	1
195.615	0.5
196.08	5.2
196.545	1.6
197.01	7.5
197.475	2.1
197.94	3.6
198.405	3.3
198.87	-0.2
199.335	-1.7
199.8	-3.9
200.264	26.8
200.729	27.2
201.193	26
201.658	23
202.122	31.4
202.587	29.3
203.051	29
203.516	30.5
203.98	33.3
204.444	37.1
204.908	34.9
205.372	41.8
205.836	49.1
206.3	50.3
206.764	49.1
207.228	55
207.692	57.7
208.156	66.5
208.62	63.3
209.083	66.4
209.547	74.9
210.011	80.9
210.474	89.8
210.938	97.8
211.401	106.8
211.864	133.7
212.328	130.7
212.791	123.7
213.254	143.3
213.717	166.1
214.181	163.5
214.644	180.1
215.107	195.9
215.57	174.1
216.033	191.9
216.495	207.7
216.958	218.4
217.421	203.9
217.884	204.5
218.346	210.6
218.809	214.2
219.272	194.2
219.734	188.1
220.196	197.2
220.659	195.2
221.121	183.2
221.584	194.4
222.046	192.9
222.508	189.6
222.97	203
223.432	198
223.894	186.7
224.356	194.3
224.818	186
225.28	208.3
225.742	257.5
226.204	292.5
226.665	322.7
227.127	324.8
227.589	383.8
228.05	482.6
228.512	591.3
228.973	667.2
229.435	607.5
229.896	601.1
230.357	667.2
230.818	830.3
231.28	1022.9
231.741	1123.8
232.202	1030.1
232.663	919.4
233.124	998.7
233.585	1287.1
234.046	1677.1
234.507	1833.8
234.967	1599.2
235.428	1358.9
235.889	1298.7
236.349	1588.7
236.81	2150.8
237.271	2532.5
237.731	2342.3
238.191	1948.2
238.652	1819.2
239.112	2198.7
239.572	2989.8
240.033	3553.5
240.493	3270.2
240.953	2562.8
241.413	2278
241.873	2664.1
242.333	3351.3
242.793	3637.7
243.253	3411
243.712	3037.6
244.172	2897.4
244.632	3248.8
245.092	4079.5
245.551	4783
246.011	5025.6
246.47	4968.4
246.93	5419.1
247.389	6832.1
247.848	8746.8
248.308	10041.6
248.767	10626.1
249.226	10492.8
249.685	10643.5
250.144	11267.4
250.603	13052.9
251.062	14781.3
251.521	14958.8
251.98	14143.4
252.439	13393.2
252.897	13342.2
253.356	14473.7
253.815	15680.5
254.273	15951.7
254.732	15233.8
255.19	13435.8
255.649	12254.2
256.107	12514.7
256.566	13254.4
257.024	14181.6
257.482	13934
257.94	12791.9
258.398	13275.5
258.856	14208.9
259.315	14808.9
259.772	15106.1
260.23	14505
260.688	13543
261.146	12513
261.604	12115
262.062	12760
262.519	13985.8
262.977	14648.8
263.434	13584.2
263.892	12375
264.349	11950.9
264.807	12416.8
265.264	12777.5
265.721	12809.3
266.179	12734.8
266.636	11700.3
267.093	10679.6
267.55	10501.3
268.007	11377.8
268.464	12451.5
268.921	12677.4
269.378	12017.5
269.835	11453.3
270.291	11363.9
270.748	11593.5
271.205	12334.1
271.661	12950.5
272.118	12799.5
272.574	12670.3
273.031	12469.9
273.487	12169
273.944	12163.6
274.4	12654.7
274.856	13180.3
275.312	12579.4
275.768	11932.1
276.225	11610.2
276.681	11552.2
277.137	11517.2
277.593	11410.2
278.048	11176
278.504	11047.2
278.96	10526.7
279.416	9739.8
279.871	8990.1
280.327	8776.8
280.783	8926.7
281.238	9005.1
281.694	8752.2
282.149	8364
282.604	7961.7
283.06	7768.8
283.515	7495.5
283.97	7433
284.425	7474
284.88	7487.5
285.335	7265.4
285.79	6630.3
286.245	6016.3
286.7	6076.5
287.155	6274.3
287.61	6267.5
288.064	6240.7
288.519	6428.1
288.974	6198.2
289.428	5820.8
289.883	5731.1
290.337	5860.6
290.792	6129.9
291.246	6328.5
291.7	6360
292.155	6185.8
292.609	5792.9
293.063	5503.3
293.517	5304.5
293.971	5360.7
294.425	5339.1
294.879	5347.4
295.333	5105.5
295.787	4731.2
296.241	4453.6
296.694	4391.1
297.148	4556.1
297.602	4570
298.055	4544.2
298.509	4285.1
298.962	3923
299.416	3668.8
299.869	3595.2
300.322	3511.9
300.775	3451.5
301.229	3340.4
301.682	3102.9
302.135	2886.1
302.588	2668.3
303.041	2527.1
303.494	2427.2
303.947	2333.3
304.4	2176.5
304.852	2040.7
305.305	1931
305.758	1767.5
306.21	1638.7
306.663	1548.9
307.115	1510.1
307.568	1502.6
308.02	1512.9
308.473	1427
308.925	1304.7
309.377	1219
309.829	1156.6
310.282	1123.4
310.734	1084.6
311.186	1021.8
311.638	942.3
312.09	910
312.542	852.1
312.993	797.5
313.445	749.1
313.897	725.8
314.349	676.8
314.8	632.8
315.252	602.6
315.703	595.7
316.155	558.1
316.606	537.1
317.058	520.8
317.509	495.5
317.96	460.6
318.411	459
318.863	444.9
319.314	412.5
319.765	392.4
320.216	357
320.667	339.5
321.117	306.2
321.568	297.2
322.019	296.5
322.47	288.6
322.921	248.6
323.371	242.8
323.822	210.7
324.272	190.7
324.723	175.3
325.173	158.9
325.623	148.8
326.074	141.8
326.524	140.2
326.974	144.4
327.424	215
327.874	275.1
328.325	198.5
328.775	142.7
329.224	128.1
329.674	117.9
330.124	120.8
330.574	111.2
331.024	97.1
331.473	87.2
331.923	86.2
332.373	82.4
332.822	77.1
333.272	64.9
333.721	55.1
334.17	56
334.62	59.1
335.069	50.8
335.518	48
335.967	48.4
336.416	39.2
336.865	38.9
337.314	35.8
337.763	37.3
338.212	32.4
338.661	28.5
339.11	25.8
339.558	27.5
340.007	18.6
340.456	23.9
340.904	15.2
341.353	24
341.801	12.4
342.25	10.7
342.698	12.4
343.146	17.2
343.595	21.9
344.043	6.4
344.491	17.6
344.939	15.2
345.387	13.6
345.835	9.5
346.283	16.1
346.731	21.4
347.179	4.9
347.626	3.3
348.074	7.8
348.522	11.5
348.969	3.4
349.417	9.2
349.865	8.9
350.312	3
350.759	6.2
351.207	2.1
351.654	1.5
352.101	4.8
352.548	14.6
352.996	3.9
353.443	14.9
353.89	6.6
354.337	4.6
354.784	-0.2
355.231	11.7
355.677	9
356.124	3.6
356.571	3.7
357.018	0.4
357.464	-5.5
357.911	10.1
358.357	13.6
358.804	9.3
359.25	17.1
359.696	7
360.143	8.5
360.589	5.5
361.035	7.5
361.481	6.7
361.927	3
362.373	4.7
362.819	10.9
363.265	3.9
363.711	6.9
364.157	13.9
364.603	0.2
365.048	10.3
365.494	3.3
365.94	6.4
366.385	0
366.831	11.4
367.276	9.9
367.722	0.8
368.167	1
368.612	8.2
369.057	-5.2
369.503	7.6
369.948	-3.9
370.393	5
370.838	7.1
371.283	10.3
371.728	-6
372.173	12.3
372.617	-0.3
373.062	-5.9
373.507	7.9
373.951	2.6
374.396	12.1
374.841	0
375.285	0.8
375.729	-1.3
376.174	-7.9
376.618	0.5
377.062	5.4
377.507	1.4
377.951	4.2
378.395	-0.1
378.839	4.7
379.283	4.8
379.727	4.9
380.171	3.1
380.615	7.3
381.059	10.6
381.502	14.1
381.946	-3.4
382.39	0.2
382.833	0.7
383.277	-5.6
383.72	2.5
384.164	1.5
384.607	-4.6
385.05	12
385.494	18.5
385.937	2.1
386.38	7.5
386.823	-4.7
387.266	1.2
387.709	5.2
388.152	-4.7
388.595	-2.1
389.038	5.7
389.481	-3.4
389.923	2.2
390.366	1.2
390.809	-2.5
391.251	8.9
391.694	12
392.136	9.6
392.579	10.4
393.021	3
393.463	4.7
393.906	2
394.348	11
394.79	13.7
395.232	12
395.674	4.2
396.116	7.5
396.558	1.3
397	7.4
397.442	7.1
397.884	-0.9
398.325	12.4
398.767	6
399.209	6.1
399.65	5.7
400.092	4.2
400.533	1.3
400.974	0.8
401.416	-2.2
401.857	6.3
402.298	-1.4
402.74	-4.2
403.181	6.3
403.622	9.7
404.063	22.2
404.504	8.5
404.945	5.3
405.386	16.2
405.826	0.4
406.267	0.5
406.708	10.2
407.149	0.8
407.589	3.8
408.03	-2
408.47	3
408.911	9.6
409.351	10.4
409.791	12.9
410.232	-0.1
410.672	7
411.112	3
411.552	5.1
411.992	-0.2
412.432	2.8
412.872	3.8
413.312	3.4
413.752	5.2
414.192	12.8
414.632	-4.7
415.071	2.8
415.511	9.2
415.951	2.2
416.39	7
416.83	-2.1
417.269	1
417.708	11.6
418.148	4.3
418.587	-0.6
419.026	-2.1
419.465	2.9
419.904	7.8
420.344	4.1
420.783	-1.3
421.221	6.7
421.66	-2.4
422.099	-0.1
422.538	6.5
422.977	2.3
423.415	3.1
423.854	2.5
424.293	4.5
424.731	6.7
425.17	-5.3
425.608	7.1
426.046	5.5
426.485	10.6
426.923	0
427.361	-2.9
427.799	-0.7
428.237	3.7
428.675	8.3
429.113	-2.9
429.551	-0.6
429.989	2.9
430.427	5.4
430.865	0.2
431.303	-1.6
431.74	2.1
432.178	7.9
432.615	4.8
433.053	-2.3
433.49	5.9
433.928	13.7
434.365	6
434.802	8.9
435.24	12.7
435.677	2
436.114	2.3
436.551	6
436.988	14.2
437.425	11.6
437.862	7
438.299	-4.2
438.736	6.3
439.172	5.5
439.609	-3.7
440.046	-2.5
440.482	2.7
440.919	5.2
441.355	-0.6
441.792	4.8
442.228	-3.7
442.665	11.1
443.101	1.3
443.537	-5.6
443.973	8.4
444.409	2.6
444.845	14.9
445.281	-0.3
445.717	5.5
446.153	5.8
446.589	-1.1
447.025	8.6
447.461	6.1
447.896	4.9
448.332	4.2
448.768	9.9
449.203	-0.6
449.639	-1.5
450.074	11.1
450.509	7.7
450.945	6.5
451.38	10.9
451.815	-0.4
452.25	5.9
452.685	10.6
453.12	9.2
453.555	-2.5
453.99	13.3
454.425	2.1
454.86	0.6
455.295	10.3
455.73	8.7
456.164	-1.3
456.599	-1
457.033	13.8
457.468	2.1
457.902	-0.5
458.337	9.4
458.771	0.3
459.205	1.7
459.64	13
460.074	6.5
460.508	8.7
460.942	8.1
461.376	0.7
461.81	-0.4
462.244	7.2
462.678	1.6
463.112	5.4
463.545	-2.5
463.979	11.2
464.413	11.8
464.846	5.5
465.28	0.6
465.713	2.3
466.147	3
466.58	9.5
467.014	-6.8
467.447	10.2
467.88	-4.5
468.313	15.3
468.746	-0.2
469.179	-0.5
469.612	10.8
470.045	0.4
470.478	9.9
470.911	4.2
471.344	7.4
471.777	-0.5
472.209	14.4
472.642	3.3
473.074	6
473.507	8.9
473.939	-3.6
474.372	11.9
474.804	13.2
475.236	10.6
475.669	14.9
476.101	14.5
476.533	3
476.965	7.4
477.397	6
477.829	15.8
478.261	1.1
478.693	10.9
479.125	9.1
479.557	11.9
479.988	3.6
480.42	15.6
480.852	14.5
481.283	6.1
481.715	8.9
482.146	7.3
482.577	11.2
483.009	2.7
483.44	17.2
483.871	4.9
484.302	5.1
484.734	16.8
485.165	14.6
485.596	4.4
486.027	12.9
486.457	9.5
486.888	8.8
487.319	6.1
487.75	12.9
488.181	13.8
488.611	2.1
489.042	4.4
489.472	9.4
489.903	5.2
490.333	1.1
490.764	7.6
491.194	7
491.624	9.1
492.054	-2
492.484	14.8
492.915	7.5
493.345	11.7
493.775	-1.5
494.204	9.8
494.634	13
495.064	12.5
495.494	0.8
495.924	6.9
496.353	-2.3
496.783	2.1
497.212	3
497.642	0
498.071	-1
498.501	9.8
498.93	3.7
499.359	4.7
499.789	6.4
500.218	3.4
500.647	8.6
501.076	6.7
501.505	16.7
501.934	12.6
502.363	5.2
502.792	2.7
503.221	-6.4
503.649	4.9
504.078	4.4
504.507	15.9
504.935	11
505.364	13.6
505.792	14
506.221	5.1
506.649	7.7
507.077	3.2
507.506	6.1
507.934	0.8
508.362	8.4
508.79	6.2
509.218	-4.1
509.646	3.4
510.074	3.5
510.502	0.8
510.93	9.8
511.357	3.1
511.785	-3
512.213	6.2
512.64	2.5
513.068	13.3
513.496	2.4
513.923	15.6
514.35	3.8
514.778	1.2
515.205	-1.7
515.632	5.6
516.059	7.8
516.486	10.4
516.914	-1.8
517.341	-3.1
517.768	3
518.194	4.4
518.621	13.4
519.048	3.2
519.475	5.4
519.902	4.3
520.328	10.9
520.755	4.9
521.181	-1
521.608	2
522.034	9.7
522.461	7.7
522.887	-2.7
523.313	6.3
523.739	-7.2
524.165	13.8
524.592	-4.1
525.018	3.3
525.444	4.7
525.869	10.2
526.295	5.5
526.721	7.2
527.147	4
527.573	9.6
527.998	5
528.424	4.6
528.849	-6.5
529.275	17
529.7	10.4
530.126	16.9
530.551	6
530.976	3.7
531.402	5.2
531.827	2.7
532.252	5.6
532.677	8
533.102	10.6
533.527	2.9
533.952	6.4
534.377	-0.2
534.801	9.8
535.226	22.6
535.651	-9.3
536.076	0.8
536.5	-2.2
536.925	3.3
537.349	8.4
537.773	0.4
538.198	3.2
538.622	3.9
539.046	-2.6
539.471	3.4
539.895	6.4
540.319	7.6
540.743	9.6
541.167	8.5
541.591	3.2
542.015	5.7
542.438	2.2
542.862	7.7
543.286	8.5
543.71	7.9
544.133	1.4
544.557	8.6
544.98	0.8
545.404	1.3
545.827	-3.8
546.25	0.5
546.674	9
547.097	6
547.52	13.3
547.943	-0.9
548.366	2.6
548.789	3.9
549.212	-1.2
549.635	3.8
550.058	-2.1
550.481	11.1
550.903	5.5
551.326	8.6
551.749	0.6
552.171	8
552.594	8.1
553.016	12.6
553.438	12.4
553.861	8
554.283	1.4
554.705	3.9
555.128	6
555.55	7.1
555.972	6.3
556.394	2.9
556.816	12
557.238	-2.6
557.659	5.6
558.081	14.2
558.503	0.7
558.925	8.6
559.346	2.4
559.768	1.9
560.189	0.2
560.611	9.7
561.032	8.7
561.454	-3.7
561.875	8.8
562.296	5.3
562.718	13.1
563.139	1.4
563.56	6.5
563.981	11.6
564.402	2.9
564.823	0
565.244	5
565.664	11.6
566.085	5.5
566.506	3.8
566.927	8.2
567.347	-2.7
567.768	0.9
568.188	-2.6
568.609	-1.1
569.029	7.7
569.449	1.7
569.87	5
570.29	3.3
570.71	0.3
571.13	-0.9
571.55	-8
571.97	7.5
572.39	14.5
572.81	-6.6
573.23	13.1
573.65	1.3
574.069	1.2
574.489	-0.3
574.909	3.5
575.328	11.7
575.748	-1.7
576.167	-1.4
576.587	7.5
577.006	7.2
577.425	4
577.844	8.5
578.264	10.3
578.683	-5.2
579.102	8.2
579.521	6.9
579.94	2.3
580.359	6.7
580.778	5.8
581.196	-0.1
581.615	3
582.034	-1.4
582.452	-4.7
582.871	-0.4
583.29	0.4
583.708	3
584.126	6.2
584.545	8.3
584.963	-4.1
585.381	3
585.8	-3.1
586.218	10.3
586.636	4.3
587.054	3
587.472	-6.9
587.89	8.4
588.308	0.1
588.725	6.8
589.143	-0.9
589.561	6.4
589.979	4.6
590.396	6.3
590.814	5.4
591.231	5.2
591.649	8.2
592.066	2
592.483	-0.2
592.901	11.1
593.318	8.5
593.735	4.7
594.152	12
594.569	0.3
594.986	-4.1
595.403	1
595.82	7.6
596.237	2.1
596.654	5.8
597.07	1.7
597.487	1.8
597.904	-0.3
598.32	2.5
598.737	1.1
599.153	6.7
599.57	11.8
599.986	2.9
600.402	10.2
600.818	1.6
601.235	-2.8
601.651	5.2
602.067	-4.7
602.483	13.9
602.899	4.3
603.315	12.9
603.73	10.1
604.146	8
604.562	8.9
604.978	-4.1
605.393	17.6
605.809	3.1
606.224	5.5
606.64	2.6
607.055	2.3
607.471	4.2
607.886	12.5
608.301	5
608.716	-4.7
609.131	2.9
609.547	8.3
609.962	6.9
610.377	8.8
610.791	-3.7
611.206	-6
611.621	-4.9
612.036	7.1
612.451	6.9
612.865	4.3
613.28	10.2
613.694	5.2
614.109	4.6
614.523	0.1
614.938	12.4
615.352	12.9
615.766	0
616.18	13.7
616.595	17.4
617.009	4.3
617.423	1
617.837	4.8
618.251	5.4
618.664	1.9
619.078	7.1
619.492	8
619.906	4.4
620.319	7.5
620.733	9.3
621.146	10.4
621.56	13.1
621.973	9.1
622.387	20.9
622.8	8
623.213	21.5
623.627	10
624.04	23.8
624.453	11.8
624.866	18.2
625.279	16.7
625.692	12
626.105	10.8
626.518	9.2
626.93	11.1
627.343	22.7
627.756	21.1
628.168	14.8
628.581	21.4
628.993	13.3
629.406	14.8
629.818	21.1
630.231	21.4
630.643	14.6
631.055	24.4
631.467	26.1
631.879	20.6
632.291	31.2
632.703	35.5
633.115	38.9
633.527	43.2
633.939	50.6
634.351	54.3
634.763	57.3
635.174	61
635.586	63.1
635.997	76.2
636.409	59.2
636.82	83.4
637.232	83.4
637.643	82
638.054	92.9
638.466	98.3
638.877	92
639.288	91.7
639.699	101.5
640.11	104.8
640.521	100.7
640.932	97.3
641.343	105
641.753	111
642.164	112.4
642.575	115.3
642.986	116.6
643.396	106.8
643.807	112.2
644.217	120.8
644.627	107.9
645.038	114.2
645.448	113.1
645.858	97.9
646.269	100.4
646.679	101.3
647.089	99.3
647.499	107.9
647.909	95.9
648.319	91.3
648.728	92.8
649.138	84.1
649.548	92.9
649.958	89.2
650.367	78.6
650.777	72.9
651.186	62.3
651.596	61
652.005	68.3
652.415	63.3
652.824	73.9
653.233	57.9
653.642	63.5
654.052	63
654.461	68.9
654.87	61
655.279	58.5
655.688	64.6
656.096	56
656.505	61.8
656.914	68.3
657.323	58
657.731	60.2
658.14	58.5
658.548	57.2
658.957	63.6
659.365	44
659.774	61.6
660.182	52
660.59	61.1
660.998	64.4
661.407	51.1
661.815	59
662.223	49.5
662.631	53.5
663.039	63
663.446	55.6
663.854	47
664.262	46.2
664.67	49
665.077	51
665.485	44.8
665.892	48.5
666.3	45.3
666.707	48.1
667.115	43.1
667.522	33.4
667.929	49.4
668.337	35.5
668.744	30.4
669.151	29.1
669.558	37
669.965	30.5
670.372	20.7
670.779	21.2
671.185	26.5
671.592	29.6
671.999	26.1
672.405	16.6
672.812	21.8
673.219	20.8
673.625	24.7
674.032	16.3
674.438	13.6
674.844	11.4
675.25	17
675.657	8.3
676.063	6
676.469	4.6
676.875	11.6
677.281	7.7
677.687	13.6
678.093	13.6
678.499	10
678.904	12
679.31	9.5
679.716	15.3
680.121	-2.9
680.527	4.9
680.932	1.7
681.338	2.2
681.743	7.7
682.148	4.5
682.554	8.4
682.959	2
683.364	13
683.769	19.6
684.174	3.1
684.579	2.6
684.984	4.3
685.389	9.5
685.794	-3.4
686.199	0
686.603	5.3
687.008	-5
687.413	5.1
687.817	7.9
688.222	1.6
688.626	5
689.03	-1.8
689.435	11.4
689.839	-1.4
690.243	7.7
690.647	7.3
691.051	9.9
691.456	6.2
691.859	2.1
692.263	13.6
692.667	4.8
693.071	2.5
693.475	7.7
693.879	11.5
694.282	3.5
694.686	-3
695.089	8.4
695.493	4.9
695.896	1.8
696.3	3.4
696.703	3.3
697.106	2.4
697.509	-1.1
697.913	1.2
698.316	-2.6
698.719	9.4
699.122	1.4
699.525	7.2
699.928	6.5
700.33	9.9
700.733	3
701.136	0.1
701.539	1.4
701.941	-2.4
702.344	6.4
702.746	8.4
703.149	1.5
703.551	5
703.953	6.6
704.356	7.2
704.758	5.7
705.16	5.9
705.562	8.1
705.964	13.1
706.366	-5.1
706.768	0.2
707.17	8
707.572	-1.6
707.973	-7.3
708.375	0.4
708.777	-8.3
709.178	8.5
709.58	-2
709.981	2.8
710.383	-0.3
710.784	2.2
711.186	0.6
711.587	-1.1
711.988	7.8
712.389	5.8
712.79	-0.2
713.191	6.4
713.592	4.6
713.993	-2.9
714.394	2.7
714.795	-1.2
715.196	3.7
715.596	-4
715.997	8.9
716.398	2.5
716.798	5.2
717.199	5.6
717.599	17.7
718	-2.1
718.4	15.6
718.8	6.2
719.2	5.7
719.6	9.7
720.001	7.6
720.401	3.7
720.801	-13.5
721.201	3
721.6	2.1
722	12.9
722.4	11
722.8	5.5
723.199	10.1
723.599	1.7
723.998	0.4
724.398	6.7
724.797	5.6
725.197	2.2
725.596	4.7
725.995	8.9
726.394	-2.6
726.794	9
727.193	5.6
727.592	5.2
727.991	2.6
728.39	-0.8
728.789	-3.6
729.187	3.8
729.586	9.5
729.985	-3.9
730.383	3.3
730.782	8.3
731.181	8
731.579	8.2
731.977	14
732.376	4.6
732.774	8.5
733.172	9.4
733.571	4.9
733.969	3.6
734.367	14.3
734.765	3.6
735.163	4.6
735.561	6.7
735.959	19.9
736.356	14.1
736.754	11.9
737.152	14.6
737.55	11.1
737.947	4.3
738.345	17.8
738.742	21
739.14	19.3
739.537	21.4
739.934	16.6
740.331	25
740.729	18.6
741.126	38.6
741.523	20.6
741.92	28.2
742.317	33.5
742.714	25.2
743.111	27.4
743.507	30.1
743.904	26.9
744.301	28.1
744.697	24
745.094	27.7
745.491	29.3
745.887	37.7
746.283	32
746.68	22.6
747.076	38.8
747.472	43.3
747.869	24.4
748.265	29
748.661	20.5
749.057	27.8
749.453	27.7
749.849	34.1
750.244	21.9
750.64	29.9
751.036	23
751.432	36.4
751.827	34.6
752.223	26.6
752.618	37.6
753.014	38.2
753.409	30.1
753.805	23
754.2	20.6
754.595	31.9
754.99	31.4
755.385	33.9
755.78	40.2
756.175	40.1
756.57	42
756.965	31
757.36	32.1
757.755	43.3
758.15	46.6
758.544	40.5
758.939	49.4
759.334	55.7
759.728	47.6
760.122	61.4
760.517	59.3
760.911	64.2
761.306	56.8
761.7	58.8
762.094	47.4
762.488	55.5
762.882	48
763.276	49.9
763.67	50
764.064	63.3
764.458	53
764.852	55.4
765.245	65.4
765.639	69.1
766.033	67.5
766.426	66.5
766.82	73
767.213	74
767.606	74.2
768	62.7
768.393	77.2
768.786	61.8
769.179	65
769.572	76.8
769.966	70
770.358	67.1
770.751	75.2
771.144	79.6
771.537	79.2
771.93	66.2
772.323	73.5
772.715	76.3
773.108	63.4
773.5	60.4
773.893	52.7
774.285	60.4
774.678	50.5
775.07	51.6
775.462	44
775.854	33.5
776.247	39.8
776.639	41
777.031	37
777.423	38.8
777.815	34.1
778.207	31.4
778.598	37.9
778.99	37.2
779.382	42.5
779.773	46.9
780.165	47.9
780.557	54.2
780.948	47.2
781.339	63.5
781.731	64.1
782.122	66.8
782.513	77.1
782.905	62
783.296	63.4
783.687	50.7
784.078	50
784.469	57.3
784.86	63.2
785.251	65.8
785.641	52.5
786.032	53.9
786.423	55.3
786.813	63.5
787.204	65.7
787.594	48.8
787.985	42.6
788.375	60.2
788.766	49.2
789.156	38.9
789.546	42.7
789.936	36.3
790.326	34.6
790.717	27.8
791.107	42.6
791.497	42.2
791.886	28.1
792.276	31.1
792.666	32
793.056	29
793.445	29.5
793.835	25.4
794.225	27.8
794.614	24.1
795.004	37
795.393	19.6
795.782	26.3
796.172	23.1
796.561	19.2
796.95	28.6
797.339	29.4
797.728	22.1
798.117	17.7
798.506	32.1
798.895	22.9
799.284	27
799.673	24.3
800.061	36.8
800.45	19.3
800.839	12.4
801.227	15.9
801.616	20.8
802.004	20
802.392	18.8
802.781	12.4
803.169	12.4
803.557	3
803.945	11.1
804.333	8.2
804.721	10.3
805.109	12.8
805.497	13.2
805.885	1
806.273	14.3
806.661	11.6
807.048	11.7
807.436	14.8
807.824	9.8
808.211	-0.9
808.599	6.3
808.986	4.5
809.373	5.5
809.761	10.3
810.148	7.9
810.535	4.3
810.922	-3.6
811.309	7.6
811.696	2.5
812.083	3.6
812.47	1.8
812.857	5.2
813.244	5.1
813.631	4.2
814.017	1.4
814.404	12.7
814.791	-4.5
815.177	3.5
815.564	10.3
815.95	6.7
816.336	5
816.723	11.2
817.109	-0.8
817.495	7.9
817.881	8.3
818.267	-5.3
818.653	0.4
819.039	3.6
819.425	3.4
819.811	6.4
820.197	0.3
820.582	1.3
820.968	11.4
821.354	3
821.739	4.7
822.125	0
822.51	7.3
822.895	-3.7
823.281	6.1
823.666	0.4
824.051	3
824.436	1.5
824.822	-1.5
825.207	-1.7
825.592	10.3
825.976	-5.9
826.361	-1.5
826.746	9.5
827.131	4.9
827.516	10.9
827.9	7.6
828.285	-2.1
828.669	-3.3
829.054	7.1
829.438	2.1
829.823	0.4
830.207	7.7
830.591	2.5
830.975	5.7
831.36	-3.1
831.744	-7.1
832.128	4.2
832.512	2.8
832.895	4.7
833.279	10.5
833.663	-1.2
834.047	10.2
834.431	1.5
834.814	0.5
835.198	0.6
835.581	4.2
835.965	2.1
836.348	2.9
836.731	6.5
837.115	0
837.498	0.3
837.881	-0.6
838.264	9.3
838.647	4
839.03	5.4
839.413	-3.3
839.796	3.3
840.179	0.4
840.562	3.8
840.944	-7.2
841.327	4.6
841.71	-1.1
842.092	7.6
842.475	6.8
842.857	-5.4
843.24	3.2
843.622	-0.8
844.004	-2.1
844.386	-0.1
844.769	3.3
845.151	1.3
845.533	3.5
845.915	3.5
846.297	0.4
846.678	9
847.06	-0.6
847.442	0.4
847.824	-4.2
848.205	-2.9
848.587	2.3
848.968	5.4
849.35	8.2
849.731	2.2
850.113	8.5
850.494	-4.9
850.875	0.1
851.256	-1.4
851.638	0.4
852.019	0.6
852.4	2.7
852.781	-5.4
853.161	1.3
853.542	1.2
853.923	0.2
854.304	5.8
854.685	9.2
855.065	6
855.446	-7
855.826	-4.2
856.207	3.7
856.587	5.1
856.967	-8.4
857.348	-0.9
857.728	9.5
858.108	-2.6
858.488	3.2
858.868	6.7
859.248	4
859.628	-5.4
860.008	0.3
860.388	0.2
860.768	1
861.147	0.4
861.527	-1.4
861.907	1.5
862.286	-5.1
862.666	1.7
863.045	2.9
863.424	7.6
863.804	1.8
864.183	-1
864.562	-2.5
864.941	-1.8
865.32	4.8
865.699	3
866.078	9.4
866.457	-5.7
866.836	2.8
867.215	2
867.594	6
867.972	1.9
868.351	4.5
868.729	4
869.108	5
869.486	0.9
869.865	2.2
870.243	5.1
870.621	0.8
871	5.4
871.378	1.3
871.756	3.1
872.134	7
872.512	-0.5
872.89	7.6
873.268	5.5
873.646	-2.4
874.023	4.3
874.401	13.2
874.779	4.8
875.156	3.2
875.534	11.3
875.911	4.3
876.289	-3.5
876.666	1.4
877.043	5.5
877.421	-5.2
877.798	8.8
878.175	-1.3
878.552	2.2
878.929	6
879.306	4.1
879.683	10.7
880.06	4.3
880.437	-6.3
880.813	4.1
881.19	12.7
881.567	0.6
881.943	-4.2
882.32	2.7
882.696	6.7
883.073	-4.2
883.449	9.8
883.825	0.3
884.202	5.9
884.578	3.2
884.954	5.7
885.33	2
885.706	1
886.082	6.3
886.458	8.3
886.834	6.8
887.209	5.9
887.585	3.4
887.961	7.1
888.336	5.4
888.712	3.7
889.087	6.9
889.463	-8.6
889.838	0.1
890.213	3.2
890.589	5.1
890.964	-0.8
891.339	5.2
891.714	-8.6
892.089	5.6
892.464	7.3
892.839	2.8
893.214	-3.7
893.589	-5.9
893.963	-2.8
894.338	3.3
894.713	7.6
895.087	17.7
895.462	4.7
895.836	15.9
896.211	12.4
896.585	6.9
896.959	3
897.334	0.1
897.708	10.2
898.082	8.4
898.456	0.3
898.83	2.4
899.204	6.3
899.578	7.3
899.952	3.4
900.325	7.3
900.699	4
901.073	4.8
901.446	-0.3
901.82	2.1
902.193	1.6
902.567	9.6
902.94	0.5
903.313	2.2
903.687	-7.3
904.06	12.2
904.433	3.1
904.806	9.9
905.179	1.3
905.552	4.9
905.925	4.5
906.298	5.9
906.671	6.1
907.043	8.5
907.416	-3
907.789	21.3
908.161	10.2
908.534	5.2
908.906	-5
909.279	8.5
909.651	8.9
910.023	0.7
910.396	8.9
910.768	7.3
911.14	4.2
911.512	1.5
911.884	0
912.256	5.3
912.628	6.6
912.999	11
913.371	3
913.743	0.1
914.115	12
914.486	-0.9
914.858	4.2
915.229	6
915.601	6.5
915.972	15.6
916.343	6.9
916.715	2
917.086	-3.1
917.457	2.9
917.828	10.5
918.199	-0.5
918.57	4.3
918.941	1.3
919.312	3.7
919.682	3
920.053	9.9
920.424	3.2
920.794	10.9
921.165	7.5
921.536	6.1
921.906	10.3
922.276	17.3
922.647	-13.3
923.017	7.6
923.387	6.2
923.757	9.2
924.127	8.5
924.497	9
924.867	4
925.237	10.7
925.607	-0.1
925.977	18.2
926.347	8.2
926.716	10
927.086	7.5
927.456	15.5
927.825	3.4
928.195	10.1
928.564	10.1
928.933	8.7
929.303	0.8
929.672	3.5
930.041	3.5
930.41	9
930.779	9.1
931.148	15.7
931.517	9.1
931.886	-4
932.255	15.1
932.624	7.2
932.993	10.2
933.361	5.3
933.73	12.9
934.098	9.2
934.467	13.9
934.835	9.9
935.204	-3.4
935.572	-8.6
935.94	9.7
936.308	4.9
936.677	2.6
937.045	18.6
937.413	11.2
937.781	4
938.149	14.6
938.516	8
938.884	4.8
939.252	10.8
939.62	11.2
939.987	17.6
940.355	9
940.722	10.1
941.09	7.2
941.457	10.9
941.825	6.4
942.192	5.4
942.559	1.4
942.926	6.5
943.293	13.1
943.66	6.9
944.027	2.4
944.394	20
944.761	4.9
945.128	10.2
945.495	13.6
945.861	8.6
946.228	2
946.595	2.3
946.961	0.7
947.328	3.9
947.694	3.4
948.06	13.1
948.427	10.1
948.793	4
949.159	11.9
949.525	4
949.891	-1.4
950.257	0.3
950.623	10.5
950.989	18
951.355	11
951.721	7.5
952.087	1.8
952.452	12
952.818	10.1
953.183	8
953.549	-1.6
953.914	8.2
954.28	4.6
954.645	11.4
955.01	11.9
955.375	1.4
955.741	6.5
956.106	4.2
956.471	2.1
956.836	0
957.201	-10.6
957.566	9.2
957.93	8.4
958.295	17.9
958.66	4.8
959.024	11.8
959.389	2
959.753	5.1
960.118	13.5
960.482	10.1
960.847	15.2
961.211	11.1
961.575	8.6
961.939	-10.4
962.303	-1.7
962.667	2.5
963.031	14.2
963.395	4.1
963.759	8.1
964.123	5.3
964.487	2.8
964.851	7.6
965.214	9.9
965.578	1.7
965.941	0.2
966.305	-8.3
966.668	-7.9
967.032	-0.5
967.395	12.7
967.758	10.2
968.121	2.3
968.484	4.2
968.847	-0.8
969.21	3
969.573	7.3
969.936	0.5
970.299	3.3
970.662	4.3
971.025	-4.5
971.387	5.7
971.75	10
972.112	10.3
972.475	10.8
972.837	13.1
973.2	2.2
973.562	8.9
973.924	6.8
974.286	6.7
974.649	-8.4
975.011	-1.8
975.373	-7.4
975.735	-0.4
976.097	7.9
976.458	15.8
976.82	-2.2
977.182	14.3
977.544	7.1
977.905	11.3
978.267	8.9
978.628	8.6
978.99	3.8
979.351	9.2
979.712	1.8
980.074	-1.2
980.435	-1.7
980.796	10.7
981.157	2.2
981.518	7.2
981.879	-5.6
982.24	-0.4
982.601	1.8
982.962	-5.9
983.323	4
983.683	0
984.044	11.1
984.404	-7.8
984.765	4.9
985.125	6.3
985.486	10.6
985.846	13.1
986.206	12.9
986.567	3.9
986.927	5
987.287	3.1
987.647	0.5
988.007	8.8
988.367	-11.6
988.727	4.7
989.087	2.1
989.446	3.1
989.806	-6
990.166	-3.9
990.525	10.4
990.885	3.9
991.244	6.5
991.604	5.9
991.963	3.4
992.322	1
992.682	-2.1
993.041	-2.3
993.4	6.3
993.759	-0.8
994.118	-9.9
994.477	8.3
994.836	-4.9
995.195	1.1
995.553	4.4
995.912	-1
996.271	2.2
996.629	6.8
996.988	13.3
997.346	-3
997.705	-1.8
998.063	1
998.422	-0.8
998.78	-0.7
999.138	-0.7
999.496	-2.3
999.854	13.4
1000.212	-3.1
1000.57	5.3
1000.928	-1.9
1001.286	10.6
1001.644	-7.9
1002.001	2
1002.359	2
1002.717	10.3
1003.074	2.7
1003.432	3.3
1003.789	4.1
1004.147	12.3
1004.504	-1.1
1004.861	5.5
1005.218	8.1
1005.576	-4.4
1005.933	1.9
1006.29	1.4
1006.647	3.1
1007.004	9.9
1007.36	2.2
1007.717	1.5
1008.074	-4.9
1008.431	5.2
1008.787	2.1
1009.144	5.9
1009.5	-2.2
1009.857	0.8
1010.213	6.8
1010.569	4.9
1010.926	-0.1
1011.282	3.4
1011.638	-10.2
1011.994	2.8
1012.35	0.4
1012.706	1.6
1013.062	-6.8
1013.418	1.2
1013.774	3.3
1014.13	8.1
1014.485	-9.8
1014.841	5.4
1015.197	-2.3
1015.552	6.9
1015.907	0.8
1016.263	3
1016.618	7.8
1016.974	11.6
1017.329	5
1017.684	-3.5
1018.039	-1.4
1018.394	-2.9
1018.749	3.7
1019.104	8.8
1019.459	4.9
1019.814	8.2
1020.168	-3
1020.523	5.9
1020.878	-6.2
1021.232	2.2
1021.587	7
1021.941	7.2
1022.296	-6
1022.65	3.4
1023.004	-6.7
1023.359	-1.8
1023.713	6
1024.067	8.7
1024.421	11.4
1024.775	-1.8
1025.129	-0.8
1025.483	1
1025.837	-0.7
1026.19	2.2
1026.544	-10.1
1026.898	1.6
1027.251	5.2
1027.605	1.2
1027.958	-3.8
1028.312	2.3
1028.665	4.2
1029.018	12.1
1029.372	9.1
1029.725	0.6
1030.078	-1
1030.431	-2.5
1030.784	5.2
1031.137	3.5
1031.49	7.7
1031.843	1.3
1032.195	-1.2
1032.548	9.1
1032.901	-4.8
1033.253	6.8
1033.606	7.5
1033.958	2.9
1034.311	-0.2
1034.663	9.4
1035.016	14.5
1035.368	-2.9
1035.72	5.9
1036.072	9.3
1036.424	4
1036.776	2.9
1037.128	13.3
1037.48	2.9
