Data from 1.1bar_Subt2__0__18-27-08-640.txt Node

Date: Thu Jan 06 18:27:08 CET 2022
User: fsatto
Spectrometer: OFX01956
Trigger mode: 0
Integration Time (sec): 1.000000E-2
Scans to average: 10
Nonlinearity correction enabled: false
Boxcar width: 0
Storing dark spectrum: false
XAxis mode: Wavelengths
Number of Pixels in Spectrum: 2136
>>>>>Begin Spectral Data<<<<<
158.236	0
158.705	-10.6
159.174	1.3
159.643	-1.2
160.112	-12.1
160.582	-7.2
161.051	-7.9
161.52	-6.8
161.988	-12.3
162.457	-15.5
162.926	-10.9
163.395	-9.6
163.864	-2.4
164.332	-6.8
164.801	4.2
165.269	-1.7
165.738	-4.7
166.206	-13.4
166.675	-7.2
167.143	-7.3
167.612	-14.9
168.08	-6.7
168.548	-14.5
169.016	-2.8
169.484	-10.8
169.952	-8.8
170.42	-14.5
170.888	-1.5
171.356	-8.3
171.824	-9.1
172.292	-5.7
172.759	-11.2
173.227	-7.5
173.695	-12.7
174.162	-8.1
174.63	-2.9
175.097	-11.3
175.565	-7.6
176.032	-11.1
176.499	-5
176.967	-7.9
177.434	-9.4
177.901	-2.5
178.368	-13.3
178.835	-11.1
179.302	-1.2
179.769	-9.8
180.236	-8.8
180.703	-1.7
181.17	-6.1
181.637	-6.1
182.103	-10.1
182.57	-2.4
183.036	-4.6
183.503	-2.4
183.97	-11
184.436	-0.8
184.902	-7.7
185.369	-5.4
185.835	0.7
186.301	-5.1
186.767	-6.9
187.234	-8
187.7	-14
188.166	-15
188.632	-11.7
189.098	-9.3
189.563	-6.5
190.029	-6.9
190.495	-12.8
190.961	-10.4
191.426	-10.9
191.892	-6.4
192.358	-10.1
192.823	-5.8
193.289	-7.9
193.754	-9
194.219	-13.7
194.685	-7.4
195.15	-5
195.615	-2
196.08	-5.1
196.545	-10.6
197.01	-9
197.475	-6.6
197.94	-9.3
198.405	0
198.87	-4.3
199.335	-2.7
199.8	-7.1
200.264	21.4
200.729	21.6
201.193	10.2
201.658	15.5
202.122	26.1
202.587	21.3
203.051	28.2
203.516	27.9
203.98	32.4
204.444	35.7
204.908	41.8
205.372	42.2
205.836	59
206.3	71.6
206.764	66.1
207.228	71.4
207.692	79.2
208.156	84.9
208.62	100.5
209.083	105.3
209.547	118.6
210.011	131.5
210.474	150.3
210.938	167.7
211.401	179.1
211.864	196.8
212.328	214.8
212.791	204.5
213.254	221.8
213.717	247.6
214.181	261.1
214.644	279.1
215.107	286.8
215.57	283.5
216.033	322.3
216.495	355.4
216.958	344.2
217.421	328.4
217.884	353.2
218.346	352.1
218.809	352.5
219.272	368.6
219.734	313.4
220.196	296.2
220.659	278.1
221.121	281.9
221.584	299.2
222.046	285.1
222.508	293.2
222.97	264.8
223.432	226.2
223.894	230.2
224.356	252.7
224.818	252.4
225.28	241.6
225.742	238.3
226.204	246.4
226.665	285.8
227.127	313.1
227.589	312.9
228.05	343.4
228.512	385.3
228.973	433.1
229.435	450.8
229.896	481.5
230.357	502.6
230.818	623.4
231.28	768.1
231.741	852.7
232.202	783.7
232.663	702.3
233.124	719.1
233.585	917.3
234.046	1206.7
234.507	1298.9
234.967	1132.8
235.428	871.9
235.889	778.6
236.349	975.9
236.81	1356.7
237.271	1620.7
237.731	1475.4
238.191	1172.8
238.652	1082.3
239.112	1378.5
239.572	1933
240.033	2322.9
240.493	2055
240.953	1579.5
241.413	1463.9
241.873	1837.7
242.333	2415.3
242.793	2605.6
243.253	2377.8
243.712	2102.5
244.172	2172.1
244.632	2663.9
245.092	3445.8
245.551	3942.4
246.011	4007.4
246.47	3873.4
246.93	4150.3
247.389	5367.9
247.848	7131.5
248.308	8201
248.767	8466.7
249.226	8060.2
249.685	7869.4
250.144	8361.8
250.603	9812.5
251.062	11101.9
251.521	11091.6
251.98	10217.8
252.439	9548.8
252.897	9695.9
253.356	10628.7
253.815	11589.2
254.273	11584.3
254.732	10865.2
255.19	9548.5
255.649	8696.3
256.107	9093.2
256.566	9753.3
257.024	10395.7
257.482	10123.5
257.94	9170.4
258.398	9431.1
258.856	10042.3
259.315	10619
259.772	10748.3
260.23	10352.2
260.688	9574.4
261.146	8772
261.604	8363.8
262.062	8935.9
262.519	9862.3
262.977	10451.7
263.434	9730.7
263.892	8857.5
264.349	8541.8
264.807	9025.8
265.264	9459.3
265.721	9717.6
266.179	9671.2
266.636	8904.2
267.093	7992.6
267.55	7915.5
268.007	8738.6
268.464	9714.9
268.921	9996.8
269.378	9387.5
269.835	8863.8
270.291	8703.2
270.748	8885.1
271.205	9534.8
271.661	9941.4
272.118	9728.8
272.574	9584.5
273.031	9400
273.487	9104.7
273.944	9067.3
274.4	9420.4
274.856	9742.9
275.312	9291.5
275.768	8802.5
276.225	8401.1
276.681	8341.5
277.137	8256.5
277.593	8102.9
278.048	8122.4
278.504	7981.9
278.96	7575
279.416	6942
279.871	6360.4
280.327	6218.6
280.783	6388.1
281.238	6563.9
281.694	6432
282.149	6156.7
282.604	5829.6
283.06	5594.6
283.515	5428.5
283.97	5435.8
284.425	5550.9
284.88	5606.6
285.335	5491.7
285.79	4961
286.245	4470.2
286.7	4485.7
287.155	4691.8
287.61	4755.4
288.064	4808.5
288.519	4982.1
288.974	4885.6
289.428	4505.6
289.883	4402.9
290.337	4567
290.792	4815
291.246	5076.4
291.7	5141.9
292.155	5045.4
292.609	4701.9
293.063	4410
293.517	4337.4
293.971	4378
294.425	4490.3
294.879	4520.7
295.333	4369.6
295.787	4063.6
296.241	3853.9
296.694	3813.9
297.148	3962.5
297.602	4087.6
298.055	4068.9
298.509	3924.9
298.962	3612.9
299.416	3405.2
299.869	3393.6
300.322	3393.7
300.775	3337.3
301.229	3259.1
301.682	3063.9
302.135	2890.5
302.588	2701.3
303.041	2575.9
303.494	2462.9
303.947	2384.5
304.4	2264.4
304.852	2156.6
305.305	2015.8
305.758	1905.1
306.21	1751
306.663	1682.3
307.115	1636.2
307.568	1647.2
308.02	1674.7
308.473	1583.6
308.925	1485.4
309.377	1383.3
309.829	1331.6
310.282	1310.7
310.734	1282.7
311.186	1213.5
311.638	1157.3
312.09	1073.9
312.542	1029.2
312.993	988.1
313.445	926.5
313.897	891.2
314.349	832.6
314.8	815.5
315.252	779.7
315.703	756.8
316.155	714
316.606	706.4
317.058	656.1
317.509	678.7
317.96	613.1
318.411	600.3
318.863	588.4
319.314	570.1
319.765	530
320.216	505.2
320.667	453.2
321.117	436.7
321.568	410.9
322.019	408.7
322.47	396.4
322.921	361.7
323.371	328.8
323.822	296.5
324.272	264.4
324.723	257.8
325.173	225
325.623	223
326.074	196.9
326.524	200.9
326.974	224
327.424	327.4
327.874	406.1
328.325	306.1
328.775	214.7
329.224	204
329.674	180.6
330.124	170.3
330.574	168
331.024	150.9
331.473	141.2
331.923	122.9
332.373	121.9
332.822	99.4
333.272	99.5
333.721	86.6
334.17	72.6
334.62	81.9
335.069	74.2
335.518	62.8
335.967	63.8
336.416	54.6
336.865	55.9
337.314	50.9
337.763	53
338.212	46.5
338.661	42
339.11	31.7
339.558	29
340.007	21.6
340.456	27.7
340.904	31.1
341.353	28.7
341.801	27.8
342.25	18.9
342.698	15.7
343.146	15
343.595	19.4
344.043	7
344.491	11.7
344.939	9.2
345.387	15
345.835	13.2
346.283	9.7
346.731	20.8
347.179	3.7
347.626	-4.2
348.074	-0.8
348.522	10.7
348.969	8.3
349.417	11.5
349.865	0.3
350.312	3.9
350.759	-2.2
351.207	-3.2
351.654	-7
352.101	-3.4
352.548	5.1
352.996	-3.8
353.443	9.6
353.89	2.2
354.337	-1.4
354.784	-9.1
355.231	-3.8
355.677	-0.1
356.124	0.8
356.571	-8.4
357.018	3.1
357.464	-3.4
357.911	-2.5
358.357	0.4
358.804	2.5
359.25	10.8
359.696	3.6
360.143	-0.5
360.589	-3
361.035	6.2
361.481	1.7
361.927	11.5
362.373	4.7
362.819	3.2
363.265	4.2
363.711	-1.3
364.157	-2.7
364.603	7.3
365.048	-2.8
365.494	-2.3
365.94	-8.6
366.385	-11
366.831	-2.2
367.276	-6.9
367.722	-0.4
368.167	-11.2
368.612	-3.8
369.057	-4.3
369.503	1.8
369.948	-9.5
370.393	1.5
370.838	-2.4
371.283	-5.1
371.728	-18.8
372.173	-4.2
372.617	1.5
373.062	-4.9
373.507	-2.6
373.951	2.7
374.396	0
374.841	-4.2
375.285	-7.4
375.729	-4.8
376.174	-11
376.618	-7.8
377.062	-5.7
377.507	-10.6
377.951	-7.7
378.395	-10.7
378.839	-7.9
379.283	-0.5
379.727	12.1
380.171	-4.6
380.615	-0.1
381.059	0.8
381.502	-1.3
381.946	-5.1
382.39	-7.7
382.833	-0.5
383.277	-10.7
383.72	-10.6
384.164	-10.2
384.607	-3.6
385.05	2.2
385.494	2
385.937	-4
386.38	1.7
386.823	-11.1
387.266	-6.5
387.709	-5.5
388.152	-9.5
388.595	-13.2
389.038	1
389.481	-9.3
389.923	-13.4
390.366	-10.6
390.809	-14.6
391.251	-1.3
391.694	1.3
392.136	4
392.579	-2.7
393.021	-10.2
393.463	-9.6
393.906	-0.5
394.348	-4.6
394.79	4.3
395.232	-3.2
395.674	-4.3
396.116	-2
396.558	-2.6
397	-0.5
397.442	-1
397.884	-12.8
398.325	3.4
398.767	5.1
399.209	-3.8
399.65	0.6
400.092	-7.6
400.533	-7.2
400.974	-20.3
401.416	-11.5
401.857	-2.9
402.298	-4.6
402.74	-9.9
403.181	0.1
403.622	1
404.063	4.8
404.504	-4.3
404.945	-10.2
405.386	1.9
405.826	-2.6
406.267	-0.4
406.708	-3.5
407.149	-7.4
407.589	-6.1
408.03	0.2
408.47	-1.5
408.911	6.8
409.351	-4.2
409.791	0.1
410.232	-1.4
410.672	-1.2
411.112	-5.2
411.552	2.6
411.992	-5.1
412.432	-0.8
412.872	-2.6
413.312	1.2
413.752	-6.9
414.192	2.5
414.632	-16.5
415.071	-7.9
415.511	2.3
415.951	-3.1
416.39	3.8
416.83	-0.8
417.269	-4.3
417.708	-2.7
418.148	-6.9
418.587	-7.4
419.026	-8.7
419.465	0.7
419.904	4.3
420.344	-1.4
420.783	-11.5
421.221	0.2
421.66	-6.5
422.099	-10.6
422.538	-2.5
422.977	-3.2
423.415	-3
423.854	-5.7
424.293	-2.1
424.731	-9.6
425.17	-4.2
425.608	1
426.046	-2.5
426.485	-8.6
426.923	-1.5
427.361	-2.9
427.799	-1
428.237	-2.1
428.675	2.5
429.113	-0.3
429.551	0.2
429.989	-0.6
430.427	-1.6
430.865	-0.9
431.303	-4.9
431.74	-3.2
432.178	-2.6
432.615	-8.1
433.053	-3.5
433.49	0.8
433.928	1.8
434.365	9.9
434.802	-13.7
435.24	-2
435.677	-4.4
436.114	-10.1
436.551	1.2
436.988	1.6
437.425	5.2
437.862	-6
438.299	-0.2
438.736	-1
439.172	1.5
439.609	-12.5
440.046	-4.1
440.482	-9
440.919	2.6
441.355	-4.2
441.792	0.2
442.228	-7.7
442.665	-2.1
443.101	-7.3
443.537	-7.7
443.973	1.3
444.409	5.2
444.845	6.7
445.281	-0.8
445.717	-8.9
446.153	-7.4
446.589	-7.6
447.025	1.9
447.461	-2
447.896	-1.2
448.332	4.1
448.768	-2.3
449.203	-5.3
449.639	-0.4
450.074	-0.4
450.509	-9.7
450.945	1.9
451.38	-0.2
451.815	-13
452.25	2
452.685	-3.9
453.12	-0.6
453.555	-20.5
453.99	-9.1
454.425	-5.2
454.86	3.5
455.295	-6.6
455.73	-1.8
456.164	-6.2
456.599	1.9
457.033	9
457.468	-12.8
457.902	-6.4
458.337	-4.7
458.771	-10
459.205	-5.5
459.64	1.5
460.074	0.9
460.508	-7.2
460.942	-2.7
461.376	-6
461.81	-3.9
462.244	-5.9
462.678	-6.9
463.112	0.1
463.545	-12.3
463.979	2.7
464.413	4.5
464.846	5.2
465.28	1.7
465.713	1.5
466.147	-4.3
466.58	-1.6
467.014	-14.8
467.447	-2.2
467.88	-14
468.313	2.8
468.746	-3.8
469.179	-13.7
469.612	0.2
470.045	-6.2
470.478	-3.3
470.911	-8.5
471.344	3.2
471.777	-0.2
472.209	0.3
472.642	-7.7
473.074	0
473.507	5.1
473.939	-3.6
474.372	-1.3
474.804	3.8
475.236	5.9
475.669	7.9
476.101	5.1
476.533	3.3
476.965	1.5
477.397	0.6
477.829	2.2
478.261	-5.5
478.693	7.6
479.125	10.7
479.557	7.4
479.988	5.8
480.42	7
480.852	2.8
481.283	2.3
481.715	8.8
482.146	7.4
482.577	2.6
483.009	-3.5
483.44	6
483.871	0.3
484.302	0.6
484.734	6.7
485.165	-3.3
485.596	3.5
486.027	1
486.457	-0.1
486.888	4
487.319	-5.1
487.75	-0.8
488.181	10.2
488.611	-3.8
489.042	0.1
489.472	-1.4
489.903	-2.8
490.333	0.2
490.764	-3.7
491.194	-3.1
491.624	6.4
492.054	-0.9
492.484	-1
492.915	0.3
493.345	7.9
493.775	-7.2
494.204	-4.4
494.634	-4.7
495.064	4.2
495.494	-4.7
495.924	-4.8
496.353	-3.7
496.783	0.3
497.212	0.4
497.642	-3.4
498.071	-3.6
498.501	0
498.93	-5.5
499.359	-6.8
499.789	-13.1
500.218	-12.9
500.647	-1.7
501.076	-2.7
501.505	-4.2
501.934	-1.6
502.363	-0.1
502.792	-10.7
503.221	-6.2
503.649	-6.3
504.078	-6.9
504.507	5.9
504.935	-7.9
505.364	1.8
505.792	5.8
506.221	-13.4
506.649	-3.3
507.077	-4.9
507.506	-7.6
507.934	-7.5
508.362	-3.8
508.79	-3.8
509.218	-9.8
509.646	-6.8
510.074	5
510.502	-10.5
510.93	-9
511.357	-1.7
511.785	-7.5
512.213	-5.7
512.64	-10.2
513.068	-4.5
513.496	-6.5
513.923	3.7
514.35	-2
514.778	-7.3
515.205	-6.4
515.632	-3.6
516.059	3.5
516.486	1
516.914	-5.2
517.341	-9.8
517.768	2.8
518.194	-5.4
518.621	-2.4
519.048	-9.1
519.475	-11.3
519.902	-1
520.328	2.5
520.755	-9.8
521.181	-9.8
521.608	-8.5
522.034	-10.2
522.461	-4.6
522.887	-19.8
523.313	-0.7
523.739	-13.9
524.165	12.9
524.592	-8.9
525.018	-1.7
525.444	-7.2
525.869	-3.9
526.295	-1.2
526.721	6.7
527.147	-9.8
527.573	-4.4
527.998	0.7
528.424	2.1
528.849	-10.9
529.275	7.3
529.7	-3.1
530.126	10.9
530.551	-3.5
530.976	6
531.402	-5.3
531.827	-2.4
532.252	4.3
532.677	0.1
533.102	7.7
533.527	1.6
533.952	3.8
534.377	-3
534.801	-3.8
535.226	14.1
535.651	-15.5
536.076	-12
536.5	-2.9
536.925	-0.7
537.349	7.8
537.773	-7.3
538.198	-6.7
538.622	-3.1
539.046	-7.8
539.471	-6.3
539.895	-2.3
540.319	1.8
540.743	-8.5
541.167	-0.5
541.591	-10.6
542.015	4.3
542.438	-2.8
542.862	-5.6
543.286	9.8
543.71	5.9
544.133	-3.7
544.557	-3.7
544.98	-1.2
545.404	4.2
545.827	-8.4
546.25	-4.8
546.674	7.8
547.097	-6.3
547.52	-1.8
547.943	-11
548.366	-3.7
548.789	-6.4
549.212	-3.3
549.635	-2.9
550.058	-4.8
550.481	3.2
550.903	-3.9
551.326	12.8
551.749	-2.1
552.171	1.6
552.594	0.9
553.016	-1.2
553.438	3.9
553.861	-0.5
554.283	-4.6
554.705	-3.4
555.128	-0.9
555.55	5.5
555.972	-1.2
556.394	-2.8
556.816	5.2
557.238	-2.8
557.659	2.9
558.081	0.4
558.503	-3.2
558.925	-3.4
559.346	-4.7
559.768	-1.9
560.189	-7.2
560.611	-3.4
561.032	4.2
561.454	-3.6
561.875	3
562.296	8
562.718	4.1
563.139	-3.5
563.56	-6.5
563.981	-5
564.402	-3.9
564.823	5.9
565.244	6.5
565.664	-15.2
566.085	7.1
566.506	-5.2
566.927	-2.2
567.347	2.4
567.768	-9.3
568.188	-0.9
568.609	1.5
569.029	-9.8
569.449	-6.2
569.87	-1.4
570.29	-4.8
570.71	-6
571.13	-7.6
571.55	-13.5
571.97	4.5
572.39	-2.9
572.81	-6.3
573.23	0.1
573.65	-5.2
574.069	-10.3
574.489	-5.6
574.909	-5.9
575.328	1.4
575.748	3.6
576.167	-5.2
576.587	-1.8
577.006	-0.4
577.425	-6.6
577.844	-0.1
578.264	-6.8
578.683	-7
579.102	-0.5
579.521	-0.5
579.94	-8.5
580.359	-1.8
580.778	-6.8
581.196	-11.7
581.615	-8.6
582.034	-14.2
582.452	-11.9
582.871	-10.5
583.29	-6.2
583.708	-4.9
584.126	-2.7
584.545	-1.8
584.963	-8.5
585.381	-5.5
585.8	-12.2
586.218	1.1
586.636	-4.7
587.054	-6.1
587.472	-16.4
587.89	-0.3
588.308	-0.8
588.725	-6.9
589.143	-4.2
589.561	-1.3
589.979	-12.9
590.396	2.5
590.814	-0.1
591.231	5.4
591.649	3
592.066	-5.5
592.483	-4.4
592.901	0.7
593.318	-4.3
593.735	-2.6
594.152	0.6
594.569	-7.1
594.986	-19
595.403	3.8
595.82	0.8
596.237	1
596.654	-2.4
597.07	-5.5
597.487	-4.6
597.904	-7.2
598.32	-9.4
598.737	-2.5
599.153	-0.5
599.57	-5.3
599.986	-3
600.402	2.2
600.818	-2.3
601.235	-5.9
601.651	-9.7
602.067	-11.5
602.483	7.4
602.899	-1.1
603.315	-4
603.73	-7.2
604.146	-5.3
604.562	-11.2
604.978	-6.9
605.393	-7.2
605.809	3.4
606.224	-4.7
606.64	4.2
607.055	-3.2
607.471	-14.8
607.886	-1.1
608.301	0.4
608.716	-2.6
609.131	-5.4
609.547	-3.1
609.962	1.2
610.377	5.8
610.791	-6
611.206	-11.8
611.621	-9.7
612.036	-1.3
612.451	-4
612.865	-5.4
613.28	0.8
613.694	3.6
614.109	-3
614.523	-1.5
614.938	5.6
615.352	-0.4
615.766	-7.3
616.18	13.7
616.595	4.3
617.009	-1
617.423	-1.5
617.837	2.5
618.251	-3.1
618.664	-2
619.078	-1.4
619.492	1.8
619.906	-4.1
620.319	4.6
620.733	10.9
621.146	2.4
621.56	7.3
621.973	7.9
622.387	2.4
622.8	0.7
623.213	10.6
623.627	4.2
624.04	12
624.453	16
624.866	15.7
625.279	17.4
625.692	3.8
626.105	2.7
626.518	3.1
626.93	12.5
627.343	20.4
627.756	18.5
628.168	11.2
628.581	24
628.993	5.2
629.406	16.2
629.818	23.1
630.231	17.8
630.643	16.5
631.055	25.4
631.467	28.6
631.879	27.8
632.291	36.3
632.703	44
633.115	44.6
633.527	54.6
633.939	56.3
634.351	62.4
634.763	66.2
635.174	64.8
635.586	66.8
635.997	92.2
636.409	77.4
636.82	88.2
637.232	94.2
637.643	98
638.054	103.2
638.466	121.3
638.877	118.5
639.288	123.5
639.699	123.8
640.11	128.9
640.521	124.1
640.932	124
641.343	115.6
641.753	132.6
642.164	136.3
642.575	140.9
642.986	132.5
643.396	127.2
643.807	138
644.217	134.1
644.627	133.4
645.038	128.1
645.448	130.5
645.858	117.8
646.269	118.9
646.679	125.9
647.089	123.8
647.499	125.1
647.909	108.8
648.319	116
648.728	108
649.138	94.7
649.548	107.9
649.958	92.1
650.367	91.6
650.777	81.4
651.186	74.3
651.596	75
652.005	59.9
652.415	62.7
652.824	62.4
653.233	64
653.642	71.7
654.052	63.1
654.461	66
654.87	61.1
655.279	60.5
655.688	68.4
656.096	56.1
656.505	62.8
656.914	64.5
657.323	56.5
657.731	58.5
658.14	63.3
658.548	51.4
658.957	54.2
659.365	55
659.774	71.5
660.182	52
660.59	64.8
660.998	61.3
661.407	65
661.815	59.4
662.223	53.4
662.631	56.1
663.039	57.9
663.446	58.1
663.854	57.3
664.262	40.9
664.67	49
665.077	50.4
665.485	46.5
665.892	47.5
666.3	40.7
666.707	53.3
667.115	42.3
667.522	32.6
667.929	39.4
668.337	34.7
668.744	29.2
669.151	35.1
669.558	34.9
669.965	31.1
670.372	17.2
670.779	19
671.185	21.7
671.592	22
671.999	14.1
672.405	17.6
672.812	16.7
673.219	9
673.625	13.3
674.032	15.1
674.438	1.3
674.844	5.4
675.25	4.8
675.657	-4.4
676.063	5
676.469	-1
676.875	10.8
677.281	-0.3
677.687	5.5
678.093	1.4
678.499	5.2
678.904	-4.5
679.31	-0.8
679.716	5.1
680.121	-6.4
680.527	-1.7
680.932	-6.6
681.338	-11.9
681.743	-2.7
682.148	1.1
682.554	3.4
682.959	-3.4
683.364	2.1
683.769	12
684.174	-7
684.579	-3.4
684.984	-3.5
685.389	-10.7
685.794	-12
686.199	-7.3
686.603	-2.1
687.008	-12.9
687.413	-0.6
687.817	3.3
688.222	-4.3
688.626	1.6
689.03	-4.2
689.435	-1.8
689.839	0.1
690.243	-4.3
690.647	-6.1
691.051	3.6
691.456	7.5
691.859	-5.2
692.263	-1.3
692.667	-2.4
693.071	-8
693.475	-2.5
693.879	2.6
694.282	-4.7
694.686	-9.7
695.089	-1.3
695.493	3.8
695.896	-6
696.3	-13.2
696.703	-2.6
697.106	-4
697.509	0.2
697.913	-1.5
698.316	-8.6
698.719	1.9
699.122	5.7
699.525	-1.9
699.928	0.9
700.33	3.9
700.733	-6.5
701.136	0.5
701.539	-11.5
701.941	-14.1
702.344	-4.1
702.746	-5.6
703.149	-4.9
703.551	-5.9
703.953	0
704.356	0.5
704.758	-1.4
705.16	-11.1
705.562	0.8
705.964	4.2
706.366	-11
706.768	-7.9
707.17	-0.4
707.572	5.3
707.973	-9.6
708.375	1.8
708.777	-10.2
709.178	1.6
709.58	1.8
709.981	-3.5
710.383	-7.6
710.784	-2.2
711.186	-8.4
711.587	-8.6
711.988	-1
712.389	1.6
712.79	-10.1
713.191	-6.3
713.592	-13.2
713.993	-12.7
714.394	-4.4
714.795	0.5
715.196	0.8
715.596	-8
715.997	-1.9
716.398	-5
716.798	-6.2
717.199	-5.5
717.599	3.2
718	-12.8
718.4	-0.6
718.8	-4.3
719.2	2.8
719.6	-6.5
720.001	-5.1
720.401	-7.6
720.801	-15.5
721.201	-3.9
721.6	0
722	1.2
722.4	-5.3
722.8	-3.4
723.199	-4.3
723.599	-3.9
723.998	-7.7
724.398	-5.2
724.797	2.6
725.197	-10.7
725.596	-3.5
725.995	-2.1
726.394	-13.9
726.794	1.6
727.193	-2.4
727.592	-3.9
727.991	-12
728.39	-11.5
728.789	-13.7
729.187	-13.3
729.586	-5
729.985	-7.8
730.383	-8.2
730.782	11
731.181	-9.5
731.579	3.9
731.977	-0.1
732.376	-6.9
732.774	-1.4
733.172	-2
733.571	-11.8
733.969	-15.6
734.367	7
734.765	-2.8
735.163	-8.8
735.561	-2.4
735.959	7.5
736.356	-1.1
736.754	-7
737.152	1.9
737.55	-3.3
737.947	0.1
738.345	8.5
738.742	8
739.14	-0.2
739.537	9.5
739.934	13.5
740.331	11.8
740.729	15.8
741.126	21.5
741.523	5.1
741.92	6.9
742.317	13.5
742.714	18.2
743.111	12
743.507	18.9
743.904	11.6
744.301	19.6
744.697	11.2
745.094	25
745.491	12
745.887	23.6
746.283	27.7
746.68	17.2
747.076	24.4
747.472	15.9
747.869	9.4
748.265	11.8
748.661	10.6
749.057	20.5
749.453	15.8
749.849	20.2
750.244	15.5
750.64	21
751.036	8.3
751.432	12.9
751.827	17.8
752.223	20
752.618	26.1
753.014	17.6
753.409	10.8
753.805	15.7
754.2	8.7
754.595	14
754.99	18.8
755.385	26
755.78	25.5
756.175	21.1
756.57	15
756.965	15.1
757.36	13.3
757.755	21.9
758.15	21.9
758.544	18.5
758.939	26.7
759.334	28.3
759.728	25
760.122	35.4
760.517	31.4
760.911	36.8
761.306	34.1
761.7	35.3
762.094	35
762.488	33.5
762.882	39.2
763.276	30.3
763.67	19.3
764.064	38.9
764.458	40.6
764.852	34.9
765.245	44
765.639	49.3
766.033	38.5
766.426	47
766.82	59.4
767.213	56.4
767.606	58.8
768	54.1
768.393	59.5
768.786	56.5
769.179	51.1
769.572	56.7
769.966	57.1
770.358	55.2
770.751	53.9
771.144	73
771.537	73.4
771.93	58.1
772.323	60.3
772.715	54.6
773.108	64.4
773.5	54.8
773.893	50.7
774.285	44.6
774.678	43.5
775.07	43.5
775.462	32
775.854	45.5
776.247	46.1
776.639	45.1
777.031	32.1
777.423	42.2
777.815	26.3
778.207	37.1
778.598	41.3
778.99	38.7
779.382	38.3
779.773	49.5
780.165	50
780.557	41.9
780.948	49.2
781.339	52.5
781.731	60.5
782.122	64.9
782.513	68.1
782.905	54.4
783.296	59.5
783.687	50.9
784.078	46.9
784.469	56.6
784.86	46.6
785.251	50.7
785.641	52.5
786.032	51
786.423	48
786.813	63.1
787.204	53.3
787.594	50.7
787.985	44.3
788.375	51
788.766	49.3
789.156	32.8
789.546	44.9
789.936	32.9
790.326	42
790.717	31.6
791.107	29.8
791.497	28.5
791.886	18.4
792.276	31
792.666	31.7
793.056	21.4
793.445	21.8
793.835	18.9
794.225	23.4
794.614	19.3
795.004	25.6
795.393	13.1
795.782	23.3
796.172	18
796.561	12.7
796.95	17.9
797.339	19.9
797.728	7.1
798.117	10.4
798.506	28.8
798.895	11.3
799.284	19.8
799.673	14
800.061	19.6
800.45	14
800.839	13.2
801.227	22.8
801.616	1.7
802.004	10.3
802.392	10.5
802.781	8.7
803.169	3.5
803.557	8.5
803.945	0.9
804.333	15.3
804.721	5.7
805.109	4.9
805.497	2.9
805.885	-3.2
806.273	5.9
806.661	-4.1
807.048	11.1
807.436	3.5
807.824	6.3
808.211	-7.3
808.599	-8.8
808.986	5.4
809.373	4.9
809.761	-0.5
810.148	-2.9
810.535	2.9
810.922	-7.1
811.309	2.4
811.696	-5.6
812.083	-7.3
812.47	-7
812.857	5
813.244	-14.9
813.631	4.7
814.017	2.5
814.404	5.4
814.791	-7.2
815.177	-0.8
815.564	-2.6
815.95	-0.2
816.336	4
816.723	-2.2
817.109	-5.4
817.495	-7.6
817.881	7.1
818.267	-7
818.653	-15.9
819.039	-9.2
819.425	-12.1
819.811	-4
820.197	-6.9
820.582	-7.9
820.968	-4
821.354	-0.1
821.739	-10.5
822.125	-6.8
822.51	-4.3
822.895	-2.3
823.281	5.4
823.666	-10.4
824.051	-0.9
824.436	-3.8
824.822	-6.6
825.207	-3.4
825.592	-3.9
825.976	-12.5
826.361	-10.6
826.746	-9.5
827.131	-12.2
827.516	-10.2
827.9	-3.3
828.285	-2.3
828.669	-16.6
829.054	-7.3
829.438	-5
829.823	-4.8
830.207	-8
830.591	-7.7
830.975	0.5
831.36	-12
831.744	-17.4
832.128	-10.2
832.512	-0.7
832.895	-7.5
833.279	-9.8
833.663	-5.9
834.047	11.2
834.431	-11.4
834.814	-15.8
835.198	-8.9
835.581	-8.1
835.965	-8.3
836.348	-13
836.731	-4.7
837.115	-11.2
837.498	-1.6
837.881	-2.2
838.264	-11.2
838.647	-4.4
839.03	-2
839.413	-2.4
839.796	-9.3
840.179	-3.4
840.562	-3.9
840.944	-13.2
841.327	-11.1
841.71	-9.4
842.092	-1.4
842.475	2.4
842.857	-13.1
843.24	-4.6
843.622	-16
844.004	-12.7
844.386	-9.3
844.769	-2.2
845.151	-3.5
845.533	-4.6
845.915	6.5
846.297	-6.4
846.678	-3.3
847.06	-1
847.442	-5.6
847.824	-15
848.205	-2.9
848.587	-5
848.968	-7.7
849.35	10.2
849.731	-11.2
850.113	-1.9
850.494	-11.4
850.875	-12
851.256	-6.2
851.638	-21.9
852.019	-8.8
852.4	-9.3
852.781	-9.7
853.161	-6.4
853.542	-7.3
853.923	-8
854.304	-2.2
854.685	3.8
855.065	3.6
855.446	-5.3
855.826	-9.3
856.207	-6.6
856.587	3.7
856.967	-9.3
857.348	-3.4
857.728	-4.5
858.108	-5.1
858.488	2.1
858.868	-2.1
859.248	-2.4
859.628	-14.1
860.008	-5.3
860.388	-6.3
860.768	-2.2
861.147	-9.1
861.527	-4.3
861.907	-5.1
862.286	-2.6
862.666	-7
863.045	-3.9
863.424	-9.7
863.804	-4.3
864.183	-13.1
864.562	-6.5
864.941	-3.5
865.32	3
865.699	-5.6
866.078	-3
866.457	-12.5
866.836	-10.4
867.215	-10.4
867.594	-13
867.972	-11.1
868.351	-6.3
868.729	-7.6
869.108	-4
869.486	-5
869.865	-11.8
870.243	-8.1
870.621	-9.4
871	-4
871.378	-10.8
871.756	3.2
872.134	-2.9
872.512	-15.5
872.89	-6.1
873.268	-5.1
873.646	-5.8
874.023	-3
874.401	-3.4
874.779	-5.3
875.156	-0.1
875.534	-5.8
875.911	-6.6
876.289	-16.3
876.666	-13.5
877.043	-5.6
877.421	-12.9
877.798	-3.7
878.175	-10.7
878.552	6.3
878.929	-9.8
879.306	-4.6
879.683	-3.3
880.06	-1.7
880.437	-11.8
880.813	-0.4
881.19	6.4
881.567	-6
881.943	-20.4
882.32	-2.5
882.696	-10.6
883.073	-12.3
883.449	-8.7
883.825	-8.7
884.202	-8.2
884.578	-7.4
884.954	-5
885.33	-11.1
885.706	-3
886.082	-5.6
886.458	-2.4
886.834	-9.4
887.209	-0.5
887.585	-8.5
887.961	-2.1
888.336	0.8
888.712	1.8
889.087	-6.7
889.463	-13.3
889.838	-4.8
890.213	-2.6
890.589	0.9
890.964	-11.8
891.339	-8.1
891.714	-12.2
892.089	0.5
892.464	-1.2
892.839	-1.4
893.214	-4.6
893.589	-8.7
893.963	-2.1
894.338	-10.7
894.713	-3
895.087	-4.1
895.462	-6.4
895.836	3.4
896.211	-1
896.585	-5.1
896.959	-6.1
897.334	-9.9
897.708	-5.3
898.082	5
898.456	-13.6
898.83	-2.1
899.204	7.1
899.578	-1.6
899.952	-2.7
900.325	0.3
900.699	9.3
901.073	1.7
901.446	-1.6
901.82	2.1
902.193	-11.4
902.567	-2.7
902.94	-2.5
903.313	-6.1
903.687	-8.1
904.06	-4.5
904.433	-4.4
904.806	-3.7
905.179	-6.1
905.552	-0.2
905.925	5.4
906.298	1.1
906.671	-1.3
907.043	1.3
907.416	-7.9
907.789	11.1
908.161	0.1
908.534	-7.3
908.906	-12.2
909.279	2.6
909.651	-0.1
910.023	-8.3
910.396	-3.9
910.768	0.1
911.14	-9.8
911.512	-2.4
911.884	-8.3
912.256	-5.3
912.628	-0.3
912.999	0.6
913.371	-0.9
913.743	-7.1
914.115	9.7
914.486	-9.8
914.858	-0.6
915.229	-0.3
915.601	-5.1
915.972	9.3
916.343	-0.6
916.715	-4.2
917.086	-13.5
917.457	-5.6
917.828	-8.5
918.199	-4.3
918.57	-0.4
918.941	-2.4
919.312	3.7
919.682	-4.5
920.053	-0.5
920.424	5.7
920.794	-4.4
921.165	6.4
921.536	-4.3
921.906	2.2
922.276	3.3
922.647	-10.2
923.017	2.1
923.387	1.1
923.757	2
924.127	0.5
924.497	-7.2
924.867	-5.5
925.237	-5.2
925.607	-6.7
925.977	-3
926.347	-3.8
926.716	-9.1
927.086	1
927.456	7.8
927.825	0.5
928.195	-1.2
928.564	6.1
928.933	-3.7
929.303	4.7
929.672	-3
930.041	-5.7
930.41	2.4
930.779	-1.8
931.148	6.3
931.517	5.6
931.886	-2.7
932.255	6.1
932.624	1.3
932.993	4.9
933.361	0.2
933.73	-0.6
934.098	-0.4
934.467	8
934.835	8.5
935.204	-4.7
935.572	-8
935.94	2.7
936.308	1
936.677	10.3
937.045	-2.7
937.413	5.9
937.781	1.3
938.149	0.4
938.516	6.4
938.884	3
939.252	2.4
939.62	1.8
939.987	8.5
940.355	-0.6
940.722	-1.1
941.09	7.5
941.457	9.5
941.825	1.2
942.192	-0.8
942.559	0.3
942.926	9.1
943.293	-5.9
943.66	6.1
944.027	0
944.394	10.3
944.761	4.1
945.128	3.5
945.495	12.8
945.861	-4.1
946.228	-1.3
946.595	-5.1
946.961	-7.6
947.328	9.8
947.694	4.3
948.06	2.7
948.427	-1.8
948.793	-0.7
949.159	6.2
949.525	-2.5
949.891	-0.5
950.257	-1.1
950.623	2
950.989	13.4
951.355	-1.8
951.721	-2.4
952.087	-2.2
952.452	-3.9
952.818	0.2
953.183	-1.7
953.549	-7.2
953.914	-1.6
954.28	3.3
954.645	-3.6
955.01	-3.6
955.375	-5.4
955.741	3.2
956.106	6.2
956.471	-5.5
956.836	-11
957.201	-11.2
957.566	-0.7
957.93	1
958.295	0.9
958.66	1.9
959.024	4.3
959.389	-3.4
959.753	0.1
960.118	5.8
960.482	-5.8
960.847	6.5
961.211	1.3
961.575	-0.9
961.939	-7.2
962.303	-8.9
962.667	-4.2
963.031	-2.6
963.395	-5.7
963.759	-6
964.123	3.4
964.487	-10.3
964.851	-6.4
965.214	-1
965.578	-7
965.941	3.5
966.305	-11.4
966.668	-5.9
967.032	2.9
967.395	3.2
967.758	2.6
968.121	-0.5
968.484	-6.4
968.847	-2
969.21	4.3
969.573	1.9
969.936	1.4
970.299	2.4
970.662	-3.4
971.025	-14.1
971.387	-0.6
971.75	1.4
972.112	1.8
972.475	4.3
972.837	5.1
973.2	-6
973.562	6.8
973.924	2.4
974.286	2.9
974.649	-6.5
975.011	-3.3
975.373	-8.5
975.735	-3.8
976.097	6.9
976.458	7.7
976.82	-19.2
977.182	1.4
977.544	1.7
977.905	7.3
978.267	-1.3
978.628	4.2
978.99	0.7
979.351	-1.9
979.712	-7.8
980.074	-6.9
980.435	-0.4
980.796	6.7
981.157	-4.2
981.518	-2.3
981.879	-6.2
982.24	-10.6
982.601	-3.6
982.962	-2.1
983.323	-10
983.683	1.7
984.044	-0.8
984.404	-22.4
984.765	-6.2
985.125	-3.5
985.486	-2.9
985.846	-3.5
986.206	-0.7
986.567	0.5
986.927	-5
987.287	-4.2
987.647	1.4
988.007	3.7
988.367	-16.3
988.727	1.7
989.087	-2.4
989.446	-5.9
989.806	-10.7
990.166	-12.9
990.525	-3.7
990.885	-15.3
991.244	-2.3
991.604	-9.8
991.963	-0.4
992.322	-11.4
992.682	-9.3
993.041	-8.4
993.4	-1.9
993.759	-6.8
994.118	-9.4
994.477	-3.7
994.836	-15.1
995.195	-0.4
995.553	-5.1
995.912	-1.3
996.271	-3.6
996.629	-1
996.988	-2.6
997.346	-0.3
997.705	-4.7
998.063	-3.1
998.422	-0.6
998.78	-7.7
999.138	-5.4
999.496	-7
999.854	-1.4
1000.212	-17.3
1000.57	-9.2
1000.928	-9.9
1001.286	7
1001.644	-7.2
1002.001	-1.4
1002.359	0.3
1002.717	9.4
1003.074	-7.4
1003.432	-7.8
1003.789	3.7
1004.147	-1.2
1004.504	-10.5
1004.861	0.6
1005.218	0.4
1005.576	-9.1
1005.933	-8.3
1006.29	-13.9
1006.647	1.5
1007.004	-2.1
1007.36	-8.8
1007.717	-7.3
1008.074	-5.6
1008.431	-6.2
1008.787	-1.3
1009.144	4.3
1009.5	-9.8
1009.857	-9.3
1010.213	-8.2
1010.569	3.5
1010.926	-19.1
1011.282	-7.7
1011.638	-11.8
1011.994	-13.8
1012.35	0.2
1012.706	-7.5
1013.062	-10.6
1013.418	-9.4
1013.774	-2.6
1014.13	-4.6
1014.485	-8
1014.841	3.8
1015.197	-1.8
1015.552	-7.8
1015.907	-3.8
1016.263	-6
1016.618	0.4
1016.974	-1.4
1017.329	0.7
1017.684	-3.9
1018.039	-17.1
1018.394	-10.6
1018.749	-6.5
1019.104	3.8
1019.459	2
1019.814	-11.1
1020.168	-7.6
1020.523	-12.1
1020.878	-15.7
1021.232	-8.8
1021.587	-7.3
1021.941	-6.3
1022.296	-11
1022.65	-1.4
1023.004	-4.9
1023.359	-5.7
1023.713	1.4
1024.067	-1.7
1024.421	-2.1
1024.775	-6.4
1025.129	-10.2
1025.483	-2.4
1025.837	-6.4
1026.19	-10.3
1026.544	-18.5
1026.898	-16
1027.251	-2.6
1027.605	-3
1027.958	-17.8
1028.312	-8.5
1028.665	-1.7
1029.018	0.7
1029.372	6.4
1029.725	-12.2
1030.078	-7.8
1030.431	-8.5
1030.784	-6.4
1031.137	-11
1031.49	3.1
1031.843	-10.9
1032.195	-5.7
1032.548	-9.9
1032.901	-10.7
1033.253	-0.9
1033.606	-3
1033.958	-8
1034.311	-10.3
1034.663	-2
1035.016	6
1035.368	-11.8
1035.72	-5.2
1036.072	-5.2
1036.424	0.1
1036.776	-3.9
1037.128	0.3
1037.48	-3.9
