Data from 0.05bar_Subt2__0__18-01-31-983.txt Node

Date: Thu Jan 06 18:01:31 CET 2022
User: fsatto
Spectrometer: OFX01956
Trigger mode: 0
Integration Time (sec): 2.000000E-3
Scans to average: 10
Nonlinearity correction enabled: false
Boxcar width: 0
Storing dark spectrum: false
XAxis mode: Wavelengths
Number of Pixels in Spectrum: 2136
>>>>>Begin Spectral Data<<<<<
158.236	-0.8
158.705	-9.6
159.174	-8.4
159.643	-2.6
160.112	2.5
160.582	0.2
161.051	1.7
161.52	5.6
161.988	-3.2
162.457	5.9
162.926	-1.6
163.395	6
163.864	-5.2
164.332	1.8
164.801	-6
165.269	-4.1
165.738	-1.2
166.206	0.3
166.675	8.5
167.143	-5.7
167.612	-1.3
168.08	-0.4
168.548	0.9
169.016	2.6
169.484	0.8
169.952	1.2
170.42	0.1
170.888	-3.1
171.356	-3.4
171.824	-6.9
172.292	-5.1
172.759	5.5
173.227	-1.4
173.695	-4.3
174.162	11.7
174.63	7.7
175.097	-5.9
175.565	-5.5
176.032	-1.9
176.499	-0.4
176.967	0.1
177.434	-2.1
177.901	-4.6
178.368	12
178.835	5
179.302	5.5
179.769	8.9
180.236	1.8
180.703	-9.8
181.17	2.1
181.637	-8.9
182.103	-1.7
182.57	-9
183.036	2.5
183.503	7.4
183.97	-3
184.436	1.3
184.902	6.4
185.369	0.9
185.835	0.8
186.301	4.7
186.767	2.6
187.234	-0.4
187.7	-3.6
188.166	-3.2
188.632	-4
189.098	2.2
189.563	3.6
190.029	3.9
190.495	-8
190.961	5.4
191.426	-2.5
191.892	1.8
192.358	1.9
192.823	-2.8
193.289	8.9
193.754	-5.6
194.219	2.6
194.685	14.9
195.15	4.6
195.615	-1.6
196.08	4.5
196.545	7.7
197.01	0.7
197.475	1.4
197.94	-7.3
198.405	6.1
198.87	-1.5
199.335	1.6
199.8	-1.9
200.264	54.9
200.729	57.1
201.193	58.7
201.658	64
202.122	65.4
202.587	59
203.051	56.2
203.516	73.8
203.98	72
204.444	70.3
204.908	85.8
205.372	93.6
205.836	92.5
206.3	97.2
206.764	111.1
207.228	119.5
207.692	130.3
208.156	137.3
208.62	177.3
209.083	205.6
209.547	222.9
210.011	262.3
210.474	309.9
210.938	368.4
211.401	434.2
211.864	492.3
212.328	541
212.791	641.7
213.254	777.6
213.717	837.3
214.181	1007.6
214.644	1204.7
215.107	1341.5
215.57	1463.4
216.033	1685.7
216.495	2025.4
216.958	2408.4
217.421	2600.5
217.884	2798.2
218.346	3049.1
218.809	3317.7
219.272	3654.7
219.734	3888.2
220.196	4125.1
220.659	4407.7
221.121	4683.3
221.584	4944.7
222.046	5495.7
222.508	5870.5
222.97	6194.8
223.432	6458.8
223.894	6952.9
224.356	7647.7
224.818	8122.9
225.28	8517.3
225.742	9038.8
226.204	10133.4
226.665	10945.1
227.127	11267.6
227.589	11904.1
228.05	12571.3
228.512	13283
228.973	13710.2
229.435	13456.2
229.896	12943.3
230.357	13501.5
230.818	14386.5
231.28	14734.3
231.741	14844.6
232.202	14699
232.663	14131.6
233.124	14012.8
233.585	14803.9
234.046	16000.7
234.507	16167.2
234.967	15225.3
235.428	14816.5
235.889	15037
236.349	16088.6
236.81	17340.7
237.271	17970.9
237.731	17705.8
238.191	17050.7
238.652	16847.8
239.112	17669.6
239.572	19304.1
240.033	19898.1
240.493	18281.9
240.953	16194.6
241.413	15267.6
241.873	15502.3
242.333	16280.3
242.793	15851.7
243.253	15153.8
243.712	14941.2
244.172	14944.4
244.632	14939.9
245.092	15492.8
245.551	15823.7
246.011	15647.9
246.47	15508.1
246.93	16142.1
247.389	17830.8
247.848	19147
248.308	19655.2
248.767	19719.7
249.226	19687.9
249.685	20221.6
250.144	21129.3
250.603	22497.1
251.062	23125.3
251.521	22537.5
251.98	21516.8
252.439	20963.7
252.897	20880.6
253.356	21896.5
253.815	22575
254.273	22890.2
254.732	22708.1
255.19	20170.9
255.649	17816.3
256.107	17014.3
256.566	17514.7
257.024	18880.3
257.482	18887.3
257.94	17674.4
258.398	17927.6
258.856	18052.4
259.315	17948.4
259.772	17825.9
260.23	17550.6
260.688	16986.5
261.146	16320.4
261.604	15567.5
262.062	15505.7
262.519	15800
262.977	16035.8
263.434	15167.8
263.892	14430.2
264.349	14601.4
264.807	14758.6
265.264	14372.6
265.721	13656.4
266.179	13395.7
266.636	12527.8
267.093	11709.5
267.55	11576.2
268.007	11705.5
268.464	11754
268.921	11368.1
269.378	10622.9
269.835	10290.1
270.291	10279.3
270.748	10222.1
271.205	10053.1
271.661	9468.8
272.118	8961.6
272.574	8729.5
273.031	8864
273.487	8844.3
273.944	8702.3
274.4	8648.7
274.856	8500
275.312	7920.3
275.768	7635.1
276.225	7532.7
276.681	7587.8
277.137	7432.2
277.593	7118.7
278.048	6703.7
278.504	6525.9
278.96	6233.3
279.416	5809.3
279.871	5494.6
280.327	5186.6
280.783	5050.7
281.238	4988
281.694	4705.7
282.149	4504.2
282.604	4447
283.06	4428.8
283.515	4203.1
283.97	4113.4
284.425	3951.7
284.88	3790.4
285.335	3596.3
285.79	3309.3
286.245	3100.2
286.7	3158.2
287.155	3255.1
287.61	3261.6
288.064	3217.2
288.519	3363.4
288.974	3350.4
289.428	3289.6
289.883	3274.1
290.337	3326.5
290.792	3382.1
291.246	3451.9
291.7	3391
292.155	3349.4
292.609	3278.2
293.063	3185
293.517	3152.9
293.971	3138.8
294.425	3145.4
294.879	3049.2
295.333	2964.9
295.787	2765.2
296.241	2658.4
296.694	2631.7
297.148	2696.7
297.602	2691.9
298.055	2546.4
298.509	2373.6
298.962	2130.1
299.416	2013.5
299.869	2005.6
300.322	1987.3
300.775	1893.2
301.229	1808.9
301.682	1730.9
302.135	1670.4
302.588	1591.6
303.041	1536.1
303.494	1475
303.947	1369.7
304.4	1298.6
304.852	1250
305.305	1170
305.758	1101.3
306.21	1003.5
306.663	962.8
307.115	906.9
307.568	921
308.02	914
308.473	892.6
308.925	815.3
309.377	776.1
309.829	749.1
310.282	734.7
310.734	728.3
311.186	711.9
311.638	663
312.09	627.6
312.542	588.8
312.993	555.5
313.445	530.7
313.897	522.7
314.349	476.6
314.8	462.3
315.252	441.3
315.703	415.3
316.155	426.6
316.606	394.9
317.058	378.5
317.509	387.8
317.96	377.8
318.411	342.3
318.863	350.7
319.314	339.4
319.765	320.8
320.216	306.1
320.667	278.2
321.117	256.3
321.568	256.1
322.019	245.5
322.47	240.5
322.921	243.2
323.371	211.5
323.822	205
324.272	173.9
324.723	176.8
325.173	159.2
325.623	151.3
326.074	142.4
326.524	142.5
326.974	156
327.424	217.8
327.874	273.8
328.325	201.8
328.775	151.4
329.224	135
329.674	120.9
330.124	118.6
330.574	121.1
331.024	108.4
331.473	102.8
331.923	78.5
332.373	88.4
332.822	74.6
333.272	70.3
333.721	60.2
334.17	55.4
334.62	53.2
335.069	53
335.518	53.4
335.967	42.6
336.416	43.9
336.865	44.6
337.314	42
337.763	36.6
338.212	28.9
338.661	19.5
339.11	29.3
339.558	20.4
340.007	24.4
340.456	11.6
340.904	32.8
341.353	19.7
341.801	18.7
342.25	30.3
342.698	26.1
343.146	19.9
343.595	17.7
344.043	12.9
344.491	10.6
344.939	10.9
345.387	10.8
345.835	15.7
346.283	17.8
346.731	10.7
347.179	13.2
347.626	8
348.074	7.3
348.522	8
348.969	3.8
349.417	4.6
349.865	12.7
350.312	19.7
350.759	11.5
351.207	7.6
351.654	-3.5
352.101	5.7
352.548	9
352.996	5.3
353.443	5.9
353.89	4.8
354.337	9.1
354.784	5.2
355.231	0
355.677	3.1
356.124	1.8
356.571	0.2
357.018	6.6
357.464	-0.1
357.911	7.6
358.357	5.7
358.804	5.9
359.25	6.5
359.696	-0.5
360.143	-2.1
360.589	-9
361.035	2.3
361.481	-1.5
361.927	-3.1
362.373	2.6
362.819	0.9
363.265	5.5
363.711	2.8
364.157	5
364.603	-0.9
365.048	4.4
365.494	1.8
365.94	-2.5
366.385	9.8
366.831	5.9
367.276	9
367.722	-2.4
368.167	7.7
368.612	2.6
369.057	6.6
369.503	3.4
369.948	2.9
370.393	12.7
370.838	-1.7
371.283	7.5
371.728	11.5
372.173	-0.9
372.617	4.4
373.062	-6.9
373.507	-4.2
373.951	12.8
374.396	8.4
374.841	2
375.285	17.3
375.729	-0.6
376.174	0.7
376.618	0.5
377.062	-6.6
377.507	0.3
377.951	2.2
378.395	-0.5
378.839	-4.4
379.283	3.4
379.727	3.8
380.171	11.9
380.615	2.5
381.059	2.9
381.502	0
381.946	-3
382.39	-3
382.833	1.9
383.277	0.5
383.72	3.7
384.164	11.8
384.607	5.1
385.05	-0.4
385.494	8.4
385.937	5.3
386.38	-4.9
386.823	-6
387.266	4.2
387.709	-1.7
388.152	2.9
388.595	-0.1
389.038	-8.2
389.481	-3.5
389.923	6
390.366	-1.4
390.809	-1.6
391.251	7.7
391.694	2.2
392.136	-1.7
392.579	1.7
393.021	-0.4
393.463	6.9
393.906	11.4
394.348	7.3
394.79	4.5
395.232	2.2
395.674	6
396.116	0.7
396.558	1.5
397	2.1
397.442	-4.1
397.884	6.3
398.325	-6.5
398.767	1.7
399.209	1.9
399.65	-2.3
400.092	3.8
400.533	0
400.974	9.6
401.416	3.6
401.857	-2.3
402.298	13.2
402.74	0
403.181	3.4
403.622	1.6
404.063	8.7
404.504	1.7
404.945	4.1
405.386	7.2
405.826	15.1
406.267	5.2
406.708	1.2
407.149	4.2
407.589	7.2
408.03	1.7
408.47	10.9
408.911	2.5
409.351	2.2
409.791	3
410.232	1.6
410.672	1.8
411.112	-0.8
411.552	5.4
411.992	8.2
412.432	5.3
412.872	2.6
413.312	4.7
413.752	4
414.192	-5
414.632	9.9
415.071	0.6
415.511	3.8
415.951	-2.7
416.39	-0.2
416.83	-2.4
417.269	-3.8
417.708	-0.7
418.148	-3.2
418.587	1.6
419.026	2.1
419.465	2.7
419.904	2.9
420.344	7.4
420.783	2.8
421.221	7.9
421.66	-6.2
422.099	0
422.538	8.9
422.977	2.5
423.415	1.5
423.854	5.5
424.293	6.3
424.731	8.2
425.17	-0.8
425.608	3.2
426.046	11.6
426.485	-0.9
426.923	-1.7
427.361	5.2
427.799	-2.2
428.237	-3.6
428.675	8.5
429.113	0.8
429.551	2.8
429.989	3
430.427	7.3
430.865	6.7
431.303	7.7
431.74	2.1
432.178	-1.3
432.615	-3.9
433.053	4.7
433.49	-6.4
433.928	2.1
434.365	-4.8
434.802	-3.5
435.24	0.3
435.677	4.1
436.114	7.7
436.551	1.2
436.988	-1.7
437.425	4.2
437.862	-3.5
438.299	4
438.736	3.2
439.172	-2.5
439.609	-1.9
440.046	4.3
440.482	3.2
440.919	2.2
441.355	4.7
441.792	-1.4
442.228	0.4
442.665	-2.4
443.101	3
443.537	0.8
443.973	4.6
444.409	3.5
444.845	-3.9
445.281	-5.1
445.717	8.6
446.153	5.8
446.589	4.6
447.025	-0.7
447.461	3.9
447.896	1.4
448.332	7.1
448.768	-1
449.203	6.3
449.639	11.5
450.074	-5.2
450.509	-0.1
450.945	2.8
451.38	1.8
451.815	12.6
452.25	0.9
452.685	2.2
453.12	12.2
453.555	-4
453.99	-0.1
454.425	3.7
454.86	0.1
455.295	-4.4
455.73	-1.3
456.164	19.3
456.599	2.1
457.033	-0.9
457.468	-5.2
457.902	4.5
458.337	2.2
458.771	1.3
459.205	1.4
459.64	2.2
460.074	-2.9
460.508	-3.4
460.942	-3.1
461.376	-10.3
461.81	-1.8
462.244	-3.7
462.678	1.7
463.112	1.2
463.545	-3.9
463.979	8.2
464.413	-1.9
464.846	-3.2
465.28	2.6
465.713	3.5
466.147	5.4
466.58	2.6
467.014	12.9
467.447	8.9
467.88	14.1
468.313	4.3
468.746	15
469.179	2.6
469.612	0.2
470.045	1.3
470.478	-4.9
470.911	4.7
471.344	3.1
471.777	3.4
472.209	12.7
472.642	1.7
473.074	10.4
473.507	15.1
473.939	13.5
474.372	12.8
474.804	6.6
475.236	8.2
475.669	2
476.101	5.3
476.533	7.6
476.965	8.7
477.397	-4.2
477.829	21.3
478.261	14.2
478.693	-1.3
479.125	4
479.557	10.6
479.988	12.8
480.42	14.9
480.852	11.3
481.283	8.7
481.715	16.6
482.146	9.7
482.577	15.2
483.009	14.9
483.44	16.5
483.871	8.9
484.302	7.3
484.734	3.3
485.165	12.9
485.596	12
486.027	14.5
486.457	6.9
486.888	13.3
487.319	8.6
487.75	3.4
488.181	2.6
488.611	17.6
489.042	5.1
489.472	8.1
489.903	10.1
490.333	10.7
490.764	6.6
491.194	4.7
491.624	1.7
492.054	0.2
492.484	6.4
492.915	14.9
493.345	6.2
493.775	3.1
494.204	6.7
494.634	1.4
495.064	8.8
495.494	7.5
495.924	-1.8
496.353	5.5
496.783	5.6
497.212	2
497.642	4.5
498.071	-0.4
498.501	3.8
498.93	8.5
499.359	5.7
499.789	-4.4
500.218	1.8
500.647	7.6
501.076	4.2
501.505	0.2
501.934	9.5
502.363	5.9
502.792	5
503.221	7.7
503.649	6.2
504.078	6.1
504.507	-0.1
504.935	6.7
505.364	-0.2
505.792	-0.6
506.221	5.7
506.649	4
507.077	-9.3
507.506	2.7
507.934	8.5
508.362	-14.1
508.79	1.4
509.218	9.5
509.646	-1.6
510.074	12.6
510.502	11.6
510.93	-2
511.357	6.9
511.785	6.3
512.213	5.7
512.64	-3.3
513.068	12.4
513.496	4.6
513.923	6.3
514.35	11.9
514.778	7
515.205	3.3
515.632	13.3
516.059	-1.4
516.486	-0.8
516.914	7.6
517.341	6.5
517.768	-1.7
518.194	-4.2
518.621	7.8
519.048	0.7
519.475	3.2
519.902	-5.8
520.328	3.8
520.755	-3.8
521.181	-0.7
521.608	-1.4
522.034	4
522.461	3.9
522.887	6.7
523.313	4.3
523.739	-2.7
524.165	6.8
524.592	0.7
525.018	7.7
525.444	1
525.869	1.3
526.295	4.2
526.721	-1
527.147	6.1
527.573	10
527.998	3.5
528.424	3.8
528.849	3.7
529.275	12.2
529.7	-0.3
530.126	1
530.551	-4.7
530.976	2
531.402	-6.7
531.827	11.2
532.252	-5.2
532.677	4.4
533.102	-2
533.527	1
533.952	0.5
534.377	4.2
534.801	0.3
535.226	-0.8
535.651	6.3
536.076	-4.8
536.5	-0.7
536.925	-5.8
537.349	9.8
537.773	1.1
538.198	5
538.622	14.1
539.046	4
539.471	13.1
539.895	-0.9
540.319	2.1
540.743	7.6
541.167	-8.5
541.591	7.7
542.015	3.9
542.438	2.5
542.862	1
543.286	4.8
543.71	11.7
544.133	-2.2
544.557	10.6
544.98	3.6
545.404	10.7
545.827	1.7
546.25	8.4
546.674	17.8
547.097	7
547.52	8.5
547.943	0.1
548.366	11
548.789	3.5
549.212	8.9
549.635	4.7
550.058	3.3
550.481	8
550.903	11.4
551.326	8.1
551.749	7.9
552.171	8.2
552.594	18.9
553.016	6.2
553.438	8.7
553.861	8.5
554.283	5.9
554.705	3.7
555.128	4.7
555.55	15.1
555.972	4.7
556.394	6.2
556.816	8.8
557.238	11.8
557.659	-4.6
558.081	7.2
558.503	8.6
558.925	8.6
559.346	7.5
559.768	3.9
560.189	5.3
560.611	10.5
561.032	4.4
561.454	-0.8
561.875	12.2
562.296	-2.5
562.718	1
563.139	10.6
563.56	6.2
563.981	8
564.402	-3.5
564.823	12.4
565.244	5.8
565.664	10.3
566.085	12.2
566.506	-3.3
566.927	0.5
567.347	7.9
567.768	8.1
568.188	8
568.609	4
569.029	5.8
569.449	8.7
569.87	3.1
570.29	4.9
570.71	0
571.13	-8.1
571.55	3
571.97	3.8
572.39	0
572.81	5.9
573.23	1
573.65	14.7
574.069	-1.6
574.489	-2.5
574.909	0
575.328	-4.7
575.748	6.5
576.167	12.3
576.587	11.8
577.006	1.9
577.425	9
577.844	1.6
578.264	0.2
578.683	2.5
579.102	2.3
579.521	2.6
579.94	0.9
580.359	-3.9
580.778	-8.2
581.196	-2.5
581.615	-8.5
582.034	3.9
582.452	-2
582.871	-4.4
583.29	-1
583.708	12.6
584.126	13.8
584.545	5.8
584.963	2.5
585.381	10.3
585.8	-8.5
586.218	5.1
586.636	-5.8
587.054	-10
587.472	8.6
587.89	6.3
588.308	9.3
588.725	-0.4
589.143	5.5
589.561	-3.3
589.979	3.2
590.396	-5.2
590.814	4.4
591.231	2
591.649	-0.4
592.066	-2.6
592.483	-3.7
592.901	0.8
593.318	1.3
593.735	-6.8
594.152	5.7
594.569	-4.7
594.986	10.1
595.403	2.7
595.82	5.2
596.237	2.8
596.654	0.8
597.07	-0.5
597.487	0.8
597.904	-8.5
598.32	10.5
598.737	11.4
599.153	-5.6
599.57	-2.5
599.986	-0.4
600.402	-1.6
600.818	11.5
601.235	2.6
601.651	-9.7
602.067	4.7
602.483	2.2
602.899	8.5
603.315	0.3
603.73	2.9
604.146	1.9
604.562	4.1
604.978	-3.9
605.393	-9.3
605.809	1
606.224	1.4
606.64	-11.2
607.055	4.8
607.471	8.1
607.886	2.6
608.301	-2.4
608.716	2.8
609.131	6
609.547	-1.2
609.962	4.8
610.377	2.7
610.791	3.4
611.206	1.9
611.621	8
612.036	2
612.451	7
612.865	0.2
613.28	7
613.694	1.5
614.109	5
614.523	8
614.938	4.3
615.352	2.6
615.766	8.1
616.18	15
616.595	14.6
617.009	1.3
617.423	5.6
617.837	6.9
618.251	5
618.664	13.5
619.078	18.3
619.492	11.6
619.906	15.4
620.319	8.6
620.733	18.7
621.146	6
621.56	4.2
621.973	16.8
622.387	3
622.8	15.4
623.213	17.1
623.627	25.6
624.04	21.7
624.453	24
624.866	16.9
625.279	26.9
625.692	32.4
626.105	34.7
626.518	36.5
626.93	32
627.343	42.4
627.756	45.9
628.168	45.5
628.581	47
628.993	43.8
629.406	58.4
629.818	43.8
630.231	57.7
630.643	56.3
631.055	56.2
631.467	63.8
631.879	72.9
632.291	63.1
632.703	71.6
633.115	71
633.527	87.3
633.939	95.2
634.351	90.5
634.763	94
635.174	104.6
635.586	109
635.997	108.4
636.409	105.5
636.82	113.8
637.232	109.1
637.643	107.6
638.054	121.3
638.466	122.1
638.877	106.4
639.288	112.7
639.699	119
640.11	116.5
640.521	118.6
640.932	119.7
641.343	118.1
641.753	129
642.164	119
642.575	118.2
642.986	128.6
643.396	121.7
643.807	132.8
644.217	145
644.627	127.4
645.038	136.4
645.448	146
645.858	148.5
646.269	142.8
646.679	149
647.089	145.9
647.499	152.5
647.909	153.8
648.319	135
648.728	152.6
649.138	146.3
649.548	150.1
649.958	142
650.367	142.9
650.777	162.1
651.186	157.3
651.596	134
652.005	144.7
652.415	151.8
652.824	146.5
653.233	142.2
653.642	149.9
654.052	131.6
654.461	133.7
654.87	129.1
655.279	126.8
655.688	129.2
656.096	122.2
656.505	117.3
656.914	125.4
657.323	115.4
657.731	104.1
658.14	123.7
658.548	104.4
658.957	100.9
659.365	93.3
659.774	102.9
660.182	83.6
660.59	96.3
660.998	89.4
661.407	81.2
661.815	95.3
662.223	79.8
662.631	81.9
663.039	77.2
663.446	83.8
663.854	78.4
664.262	76.5
664.67	71.6
665.077	62.3
665.485	71.1
665.892	59.9
666.3	57.2
666.707	39.8
667.115	53.4
667.522	52.1
667.929	46.1
668.337	46.2
668.744	33.5
669.151	29.1
669.558	47.1
669.965	21.9
670.372	32
670.779	31.2
671.185	36.3
671.592	30.7
671.999	26.1
672.405	23.1
672.812	24.8
673.219	20.5
673.625	35
674.032	31
674.438	9.4
674.844	20.2
675.25	24.1
675.657	27.1
676.063	15.1
676.469	14.4
676.875	16.7
677.281	19.5
677.687	19.2
678.093	15.1
678.499	9
678.904	4.2
679.31	7.2
679.716	6.7
680.121	-2.1
680.527	5.1
680.932	14.5
681.338	9.8
681.743	5.1
682.148	0.7
682.554	4.1
682.959	7.6
683.364	-4.3
683.769	8.5
684.174	2.3
684.579	18.5
684.984	7.2
685.389	5.8
685.794	5.3
686.199	7.5
686.603	1.2
687.008	5.4
687.413	-0.6
687.817	-8.3
688.222	7.6
688.626	7.9
689.03	9.5
689.435	-2.9
689.839	6.1
690.243	7.1
690.647	10.8
691.051	2.6
691.456	4.4
691.859	10.8
692.263	3.8
692.667	8.5
693.071	-2.5
693.475	1.8
693.879	5.6
694.282	5
694.686	0.2
695.089	1.7
695.493	-0.6
695.896	1.7
696.3	-0.2
696.703	4.4
697.106	2.3
697.509	6.3
697.913	2.6
698.316	5.9
698.719	3.8
699.122	3.8
699.525	-8.4
699.928	10.4
700.33	-2.3
700.733	4.1
701.136	9.5
701.539	1.9
701.941	-2.2
702.344	-0.7
702.746	-1.9
703.149	0
703.551	-3.3
703.953	-1.4
704.356	3.9
704.758	-6
705.16	-4.6
705.562	13
705.964	9.5
706.366	12.8
706.768	1
707.17	-1.2
707.572	4.2
707.973	-5.6
708.375	-2.9
708.777	-5.3
709.178	6.5
709.58	2.2
709.981	6.9
710.383	-0.8
710.784	8.6
711.186	7.8
711.587	-0.1
711.988	8.5
712.389	1
712.79	6.6
713.191	8.9
713.592	0.1
713.993	7.5
714.394	5.4
714.795	0.6
715.196	-3.6
715.596	-2.5
715.997	-0.4
716.398	2.8
716.798	-4.1
717.199	-2.4
717.599	2.8
718	-2.7
718.4	-0.3
718.8	-0.3
719.2	4
719.6	7.1
720.001	-1.2
720.401	-0.3
720.801	6.4
721.201	7.4
721.6	-0.9
722	2.5
722.4	-8.4
722.8	6.5
723.199	4.7
723.599	-4.3
723.998	5
724.398	12.5
724.797	2.6
725.197	-0.7
725.596	-3.9
725.995	0.8
726.394	7.3
726.794	1.7
727.193	14.1
727.592	6.5
727.991	-5.1
728.39	7.6
728.789	2.2
729.187	5.3
729.586	2.5
729.985	3.4
730.383	3
730.782	9.1
731.181	3.3
731.579	8.3
731.977	-0.4
732.376	-2.7
732.774	1.2
733.172	6.8
733.571	6
733.969	-1
734.367	9.9
734.765	-0.2
735.163	10.7
735.561	7.8
735.959	8.9
736.356	4.5
736.754	16.3
737.152	2.6
737.55	9.3
737.947	8.6
738.345	18.3
738.742	14.5
739.14	0.5
739.537	2.5
739.934	14.8
740.331	10.9
740.729	8.7
741.126	15.4
741.523	18.3
741.92	24.7
742.317	16.3
742.714	20.2
743.111	8.1
743.507	10.9
743.904	15.1
744.301	17
744.697	14.4
745.094	15
745.491	15.5
745.887	20.1
746.283	25.8
746.68	21
747.076	18
747.472	22.7
747.869	20.7
748.265	27.2
748.661	26.7
749.057	24
749.453	19.1
749.849	30.3
750.244	27
750.64	34.3
751.036	28.8
751.432	24.8
751.827	29.8
752.223	34
752.618	31.7
753.014	30.6
753.409	29.5
753.805	20.7
754.2	17.3
754.595	36.1
754.99	38.7
755.385	29.2
755.78	33.5
756.175	38
756.57	32.5
756.965	38.1
757.36	21.6
757.755	31.4
758.15	37.8
758.544	38.9
758.939	54.6
759.334	56.5
759.728	59.9
760.122	64.2
760.517	67.3
760.911	59.6
761.306	57.4
761.7	59.8
762.094	53.1
762.488	53.9
762.882	42.9
763.276	40.9
763.67	47.3
764.064	50
764.458	50.8
764.852	46.4
765.245	48.8
765.639	58.7
766.033	57.3
766.426	86
766.82	74.3
767.213	61.2
767.606	71.7
768	63.6
768.393	68
768.786	57.9
769.179	72.6
769.572	73.2
769.966	64.9
770.358	57.6
770.751	56.6
771.144	64.7
771.537	58.4
771.93	61.6
772.323	52.5
772.715	58.6
773.108	49.7
773.5	51.9
773.893	44.3
774.285	51.2
774.678	57
775.07	53.4
775.462	43.8
775.854	27.9
776.247	38.1
776.639	45.6
777.031	33
777.423	45.7
777.815	46.1
778.207	43.5
778.598	39.4
778.99	34.9
779.382	49.8
779.773	73.3
780.165	81
780.557	104.5
780.948	109.4
781.339	112.2
781.731	121
782.122	120
782.513	121.5
782.905	126.6
783.296	126.2
783.687	122.4
784.078	107.8
784.469	95.9
784.86	95.1
785.251	97.4
785.641	75.9
786.032	86
786.423	90.8
786.813	95.8
787.204	72.3
787.594	81.9
787.985	82
788.375	71.4
788.766	64.1
789.156	53.2
789.546	47.9
789.936	38.4
790.326	41.4
790.717	43.7
791.107	45.6
791.497	32.9
791.886	36
792.276	42.9
792.666	20
793.056	25.3
793.445	21.3
793.835	22
794.225	16.7
794.614	25
795.004	14
795.393	23.4
795.782	20
796.172	23.6
796.561	31.2
796.95	35.8
797.339	17.9
797.728	27.7
798.117	18
798.506	19.2
798.895	22.5
799.284	27.3
799.673	29.4
800.061	20.6
800.45	16.9
800.839	12.5
801.227	14.5
801.616	12.8
802.004	11.4
802.392	12.4
802.781	24.3
803.169	15.8
803.557	11.9
803.945	7.1
804.333	-0.1
804.721	5.5
805.109	10.2
805.497	5.3
805.885	12.3
806.273	16.8
806.661	10.9
807.048	15.4
807.436	-0.3
807.824	6
808.211	5.1
808.599	-3
808.986	9.1
809.373	7.3
809.761	7.7
810.148	5.3
810.535	5.3
810.922	5.1
811.309	10.8
811.696	5.5
812.083	6.8
812.47	6.4
812.857	3.7
813.244	-2.9
813.631	3.2
814.017	2.3
814.404	9.5
814.791	6.5
815.177	5.5
815.564	3.5
815.95	11.6
816.336	3.4
816.723	2.2
817.109	0.9
817.495	9.3
817.881	4.2
818.267	-4.2
818.653	-3.8
819.039	1.7
819.425	6.1
819.811	3.2
820.197	5.2
820.582	1.5
820.968	6.5
821.354	-5.1
821.739	0.3
822.125	7.8
822.51	0.1
822.895	7
823.281	10.6
823.666	3
824.051	-0.6
824.436	-4.1
824.822	-2.2
825.207	-2.6
825.592	-8.3
825.976	2
826.361	2.1
826.746	3.7
827.131	4.6
827.516	-3.4
827.9	-1.8
828.285	-3.6
828.669	-5.5
829.054	7.1
829.438	0.5
829.823	6.3
830.207	1
830.591	6.8
830.975	2.8
831.36	-1.1
831.744	4.7
832.128	-6.5
832.512	6.5
832.895	3.8
833.279	-1.3
833.663	4.1
834.047	0.4
834.431	2
834.814	10.6
835.198	3
835.581	-4.8
835.965	-0.4
836.348	3
836.731	0
837.115	6.1
837.498	5.2
837.881	6.4
838.264	3.1
838.647	2.9
839.03	8
839.413	0.6
839.796	2.9
840.179	-2.4
840.562	5.9
840.944	-2.1
841.327	-3.8
841.71	8.1
842.092	5.9
842.475	-4
842.857	-1.1
843.24	7.9
843.622	5.2
844.004	4.7
844.386	10.9
844.769	2.7
845.151	4.5
845.533	6.3
845.915	-4.4
846.297	3.4
846.678	-2.2
847.06	1
847.442	4.2
847.824	-1.5
848.205	5.1
848.587	-3.7
848.968	10.2
849.35	-3.8
849.731	7.9
850.113	4.2
850.494	2.3
850.875	-3
851.256	-3.1
851.638	5
852.019	5.4
852.4	6.9
852.781	3.1
853.161	-2.7
853.542	0
853.923	3.3
854.304	3.8
854.685	6.5
855.065	5.2
855.446	3.5
855.826	9.6
856.207	2.5
856.587	3.4
856.967	2
857.348	0.2
857.728	6.7
858.108	1.7
858.488	1.6
858.868	-8.2
859.248	4.5
859.628	0.9
860.008	4.4
860.388	6.1
860.768	2
861.147	-7
861.527	4.8
861.907	-4
862.286	5.5
862.666	9.6
863.045	1.8
863.424	7.9
863.804	-6.7
864.183	0.4
864.562	5.2
864.941	7.2
865.32	3
865.699	7.6
866.078	-4.1
866.457	6.5
866.836	3.8
867.215	9.7
867.594	-5
867.972	-4.5
868.351	-0.6
868.729	3.3
869.108	0.8
869.486	3.3
869.865	1.2
870.243	9.7
870.621	4.4
871	3.3
871.378	6.9
871.756	5.2
872.134	6.5
872.512	7.6
872.89	5.4
873.268	8.5
873.646	2.6
874.023	-7
874.401	-1.6
874.779	8.1
875.156	-2.2
875.534	2.5
875.911	7.8
876.289	-2.5
876.666	-10.7
877.043	3.1
877.421	2.9
877.798	5.5
878.175	7.7
878.552	-8.4
878.929	2.6
879.306	-0.7
879.683	-0.3
880.06	1.1
880.437	6.9
880.813	4.4
881.19	0
881.567	7.4
881.943	-0.7
882.32	2.1
882.696	10.1
883.073	4.2
883.449	3
883.825	9.5
884.202	5.7
884.578	3.1
884.954	4.8
885.33	7.1
885.706	1.3
886.082	-5.1
886.458	9.5
886.834	7.6
887.209	4.6
887.585	5.1
887.961	5.6
888.336	7.5
888.712	7.1
889.087	-5.1
889.463	6
889.838	2.2
890.213	0.8
890.589	6
890.964	2.1
891.339	1.3
891.714	-1.2
892.089	0.7
892.464	8.1
892.839	-5.9
893.214	9.3
893.589	1.8
893.963	7.1
894.338	-1.5
894.713	-3.2
895.087	6.9
895.462	5.6
895.836	-5
896.211	-13
896.585	5.5
896.959	7
897.334	11.2
897.708	6.9
898.082	0.1
898.456	7.6
898.83	6.1
899.204	9.7
899.578	-4.2
899.952	-1
900.325	-1.2
900.699	-12
901.073	4.3
901.446	1.3
901.82	1.3
902.193	1.9
902.567	7.7
902.94	1.7
903.313	9.3
903.687	-11.5
904.06	4.8
904.433	8.9
904.806	10.9
905.179	12.6
905.552	8.3
905.925	6.6
906.298	7.2
906.671	8.4
907.043	5.2
907.416	2.1
907.789	-0.4
908.161	-4.2
908.534	7.3
908.906	13.7
909.279	10.7
909.651	8.2
910.023	4.8
910.396	6
910.768	15.3
911.14	-6.7
911.512	7.6
911.884	15.8
912.256	4.2
912.628	11.9
912.999	5.9
913.371	8
913.743	12.3
914.115	1.8
914.486	12
914.858	6.3
915.229	7.5
915.601	8.1
915.972	4.2
916.343	8.6
916.715	4.7
917.086	-0.1
917.457	7.3
917.828	-1.7
918.199	15
918.57	17.2
918.941	-7.3
919.312	1.2
919.682	-2.3
920.053	2.1
920.424	7.7
920.794	8.6
921.165	4.7
921.536	8
921.906	14.6
922.276	3.6
922.647	6.4
923.017	11.8
923.387	5.9
923.757	5.3
924.127	15.4
924.497	10.2
924.867	-1.3
925.237	9.8
925.607	14.1
925.977	6.8
926.347	4.4
926.716	16.5
927.086	1.2
927.456	2
927.825	4.1
928.195	6.8
928.564	7.2
928.933	11.7
929.303	10.6
929.672	4.1
930.041	-1.8
930.41	5.3
930.779	3.4
931.148	12.7
931.517	6.4
931.886	8
932.255	10.8
932.624	2.7
932.993	7.9
933.361	-2.1
933.73	14.3
934.098	10.7
934.467	11.5
934.835	12.8
935.204	3.6
935.572	9.5
935.94	18.2
936.308	13.5
936.677	9.5
937.045	0
937.413	8.9
937.781	14.1
938.149	9.5
938.516	11
938.884	22.8
939.252	2.5
939.62	7.8
939.987	14.5
940.355	6.9
940.722	16.6
941.09	8.4
941.457	13.8
941.825	14
942.192	-1.4
942.559	14.6
942.926	-1.5
943.293	13
943.66	12.5
944.027	0.8
944.394	1.7
944.761	7.7
945.128	5.9
945.495	3.7
945.861	7.2
946.228	10.6
946.595	11.2
946.961	14.8
947.328	4.4
947.694	6.8
948.06	12.8
948.427	6.8
948.793	11
949.159	2.1
949.525	10.5
949.891	9.8
950.257	5.7
950.623	9.5
950.989	9.4
951.355	15.3
951.721	10.5
952.087	4.3
952.452	2.9
952.818	3.2
953.183	6.5
953.549	2.8
953.914	13.9
954.28	4
954.645	0.6
955.01	7
955.375	1.2
955.741	2.2
956.106	10.2
956.471	4.9
956.836	3
957.201	11.5
957.566	2.7
957.93	14
958.295	4.8
958.66	10.8
959.024	14.2
959.389	3.5
959.753	12.5
960.118	-3.8
960.482	-4.1
960.847	13.7
961.211	0
961.575	5.4
961.939	11.4
962.303	2.2
962.667	1.2
963.031	5
963.395	8.2
963.759	10.3
964.123	-2.4
964.487	0
964.851	7.7
965.214	1.8
965.578	3.7
965.941	11.2
966.305	1.2
966.668	8.6
967.032	7.7
967.395	-0.9
967.758	2.2
968.121	5.2
968.484	10.6
968.847	2
969.21	5.9
969.573	4.8
969.936	-6
970.299	0
970.662	10.1
971.025	-4.7
971.387	4.7
971.75	0.8
972.112	2.5
972.475	1
972.837	7.3
973.2	2.5
973.562	5.6
973.924	0.7
974.286	-0.9
974.649	-3.9
975.011	6.9
975.373	3.9
975.735	3.4
976.097	8.9
976.458	5.5
976.82	9.1
977.182	4.9
977.544	-1.8
977.905	0
978.267	6.8
978.628	4.9
978.99	-2.4
979.351	-4.3
979.712	1.1
980.074	11.2
980.435	4.2
980.796	6.8
981.157	3.9
981.518	-0.9
981.879	-1
982.24	4
982.601	-0.9
982.962	-1
983.323	-0.7
983.683	-0.1
984.044	4.9
984.404	9.4
984.765	3.9
985.125	5.6
985.486	-1.1
985.846	-1.5
986.206	-4.5
986.567	-7.9
986.927	-7.2
987.287	6.1
987.647	-2.4
988.007	-3.3
988.367	6
988.727	-2.2
989.087	-5.7
989.446	6.4
989.806	7.4
990.166	-0.8
990.525	4.3
990.885	-7.8
991.244	-7.2
991.604	3
991.963	5.5
992.322	1.3
992.682	-4
993.041	-7.7
993.4	0.2
993.759	2.6
994.118	-4.9
994.477	0.9
994.836	7.6
995.195	4.5
995.553	4.7
995.912	-2.5
996.271	5.5
996.629	0.7
996.988	1.4
997.346	5.4
997.705	7.6
998.063	4.4
998.422	0.4
998.78	9.1
999.138	1.4
999.496	2.1
999.854	2.4
1000.212	1.7
1000.57	4.9
1000.928	-1.8
1001.286	-4.8
1001.644	2.6
1002.001	-5.2
1002.359	-0.7
1002.717	6.6
1003.074	9.2
1003.432	-6.2
1003.789	-8.1
1004.147	9.5
1004.504	-5.2
1004.861	7.7
1005.218	-1
1005.576	1.1
1005.933	3.2
1006.29	0.9
1006.647	-6.3
1007.004	-3.8
1007.36	4.4
1007.717	-3
1008.074	10
1008.431	5.6
1008.787	-2.1
1009.144	-3.8
1009.5	3.5
1009.857	-2
1010.213	-2.5
1010.569	-5.5
1010.926	2.5
1011.282	1.7
1011.638	-1.8
1011.994	-2.3
1012.35	7.6
1012.706	2.6
1013.062	-4.5
1013.418	3.4
1013.774	-5.9
1014.13	-3
1014.485	6.9
1014.841	-1.7
1015.197	4
1015.552	-0.5
1015.907	-6.1
1016.263	0.8
1016.618	-9.1
1016.974	6.8
1017.329	2.2
1017.684	-0.7
1018.039	1.5
1018.394	-6.4
1018.749	-5.1
1019.104	-9.5
1019.459	-5.9
1019.814	-6.4
1020.168	-7.1
1020.523	1.3
1020.878	9.1
1021.232	-9.5
1021.587	0.5
1021.941	0.1
1022.296	3.2
1022.65	-5.1
1023.004	7.4
1023.359	-8.9
1023.713	3.3
1024.067	-7.1
1024.421	0.1
1024.775	-4.2
1025.129	4.9
1025.483	2.7
1025.837	-5.5
1026.19	4.5
1026.544	-5.8
1026.898	0.3
1027.251	1.2
1027.605	3.6
1027.958	-3.8
1028.312	0.8
1028.665	-5.8
1029.018	0.6
1029.372	-2.9
1029.725	1.6
1030.078	5
1030.431	6
1030.784	9.3
1031.137	-4.8
1031.49	0.9
1031.843	-8.5
1032.195	-0.4
1032.548	-6.1
1032.901	9.1
1033.253	3.6
1033.606	-1.4
1033.958	8.9
1034.311	3
1034.663	-2.4
1035.016	-10.2
1035.368	-9.8
1035.72	1.4
1036.072	0.4
1036.424	9.5
1036.776	6.9
1037.128	-2.9
1037.48	0.1
