Data from 0.25bar_Subt2__0__18-02-53-559.txt Node

Date: Thu Jan 06 18:02:53 CET 2022
User: fsatto
Spectrometer: OFX01956
Trigger mode: 0
Integration Time (sec): 2.000000E-3
Scans to average: 10
Nonlinearity correction enabled: false
Boxcar width: 0
Storing dark spectrum: false
XAxis mode: Wavelengths
Number of Pixels in Spectrum: 2136
>>>>>Begin Spectral Data<<<<<
158.236	-0.4
158.705	-9.3
159.174	-2
159.643	-5.2
160.112	9.9
160.582	-3
161.051	9.1
161.52	-0.7
161.988	2.2
162.457	0.1
162.926	-4.1
163.395	0.5
163.864	2.1
164.332	1.8
164.801	-7.2
165.269	-2.8
165.738	-2.2
166.206	-3.1
166.675	-7.1
167.143	-1.3
167.612	-2.3
168.08	0
168.548	-6.3
169.016	-1
169.484	-2.1
169.952	0.9
170.42	-8
170.888	-0.8
171.356	-0.1
171.824	-8.2
172.292	-1.3
172.759	2.6
173.227	0.7
173.695	-0.1
174.162	2.2
174.63	-1.8
175.097	-1.6
175.565	-5
176.032	0.1
176.499	-1.4
176.967	-2.4
177.434	-1.6
177.901	-1.7
178.368	4.3
178.835	4.7
179.302	3.6
179.769	-3.4
180.236	4.3
180.703	-2.9
181.17	0.4
181.637	-3.4
182.103	-0.8
182.57	3.5
183.036	-0.6
183.503	3.6
183.97	5.7
184.436	-0.8
184.902	8.5
185.369	2.5
185.835	2.7
186.301	1.9
186.767	-5.1
187.234	-8
187.7	5.5
188.166	-4
188.632	-2.5
189.098	-1
189.563	-1.4
190.029	-1.1
190.495	1.8
190.961	1.4
191.426	-4.2
191.892	2.5
192.358	-2.4
192.823	-8.1
193.289	7.2
193.754	4.3
194.219	-5.4
194.685	6.7
195.15	1.5
195.615	-2.9
196.08	5.1
196.545	2.3
197.01	5.2
197.475	7.6
197.94	-3.5
198.405	-1.1
198.87	2.1
199.335	0.9
199.8	-6
200.264	66
200.729	74
201.193	72.7
201.658	82.7
202.122	90.6
202.587	84.2
203.051	81
203.516	97.4
203.98	95.6
204.444	107.5
204.908	96.9
205.372	117.2
205.836	128
206.3	129.6
206.764	115.2
207.228	118
207.692	117.1
208.156	135.1
208.62	152.2
209.083	160.9
209.547	162.9
210.011	190
210.474	229.2
210.938	255.9
211.401	299.9
211.864	344.4
212.328	384.7
212.791	451
213.254	574.1
213.717	662.3
214.181	766.7
214.644	908.3
215.107	994
215.57	1109.4
216.033	1346.8
216.495	1611.7
216.958	1917.5
217.421	1964.7
217.884	2153.9
218.346	2379.5
218.809	2704.2
219.272	3104.8
219.734	3502.2
220.196	3757.4
220.659	4158.9
221.121	4492.3
221.584	4996.7
222.046	5671.6
222.508	6211.3
222.97	6713
223.432	7061.7
223.894	7645.9
224.356	8339.6
224.818	9027.4
225.28	9676.3
225.742	10333.1
226.204	11703
226.665	12660.3
227.127	13313.9
227.589	14326.6
228.05	15450.3
228.512	16429.7
228.973	16618.3
229.435	15688.3
229.896	15014
230.357	15648.6
230.818	17434.9
231.28	18136.6
231.741	17809.4
232.202	16640.1
232.663	15470.3
233.124	15959
233.585	17843.7
234.046	19515.8
234.507	19250.1
234.967	17173.8
235.428	15956.8
235.889	16984.7
236.349	19680.5
236.81	22769.5
237.271	23680.8
237.731	22539.2
238.191	20750.2
238.652	20956.7
239.112	23199.2
239.572	26334
240.033	27268.1
240.493	24065.9
240.953	20799.2
241.413	19746.7
241.873	21009.6
242.333	22644.5
242.793	22258
243.253	20352.1
243.712	19020.5
244.172	19106
244.632	20153.4
245.092	22263.5
245.551	22928.7
246.011	22225.5
246.47	20935.2
246.93	21993.4
247.389	25813.3
247.848	29663.6
248.308	31056.3
248.767	30496.8
249.226	28787.3
249.685	27822.9
250.144	28566.2
250.603	31965.3
251.062	34749.8
251.521	34782.3
251.98	32600.8
252.439	30123.1
252.897	28854.1
253.356	30017.8
253.815	32294.8
254.273	34056.3
254.732	34022.5
255.19	29851.6
255.649	25414.3
256.107	23700
256.566	24376.9
257.024	27193.2
257.482	28278.1
257.94	26912.8
258.398	26805.2
258.856	26146.6
259.315	26038.3
259.772	26809.2
260.23	27408.3
260.688	27081.8
261.146	25574.7
261.604	23996
262.062	23806.5
262.519	24937.4
262.977	26133.2
263.434	25258.2
263.892	24546.2
264.349	24785.1
264.807	25181.1
265.264	24476.2
265.721	23735.1
266.179	23560.2
266.636	22405.9
267.093	21173.8
267.55	21147.8
268.007	22015.8
268.464	22501.7
268.921	22348.7
269.378	21042.4
269.835	20358.5
270.291	20181
270.748	19895.4
271.205	19442.2
271.661	18695.2
272.118	18063.7
272.574	17889.9
273.031	18172.9
273.487	17712.4
273.944	17053.9
274.4	16945.8
274.856	16833
275.312	16157.1
275.768	15848.6
276.225	15756.7
276.681	15576.4
277.137	14995
277.593	14284
278.048	14010.6
278.504	13703.8
278.96	13231.2
279.416	12420.2
279.871	11580.3
280.327	11124.4
280.783	11074.7
281.238	10953.3
281.694	10383
282.149	9881.2
282.604	9745.3
283.06	9587.6
283.515	9275.3
283.97	9041.5
284.425	8646.8
284.88	8210
285.335	7816.9
285.79	7230.9
286.245	6675.3
286.7	6816
287.155	7156.6
287.61	7248.2
288.064	7274.2
288.519	7664.2
288.974	7718.2
289.428	7664.7
289.883	7756.1
290.337	7999
290.792	8216.8
291.246	8570.7
291.7	8806.3
292.155	8911.2
292.609	8878.6
293.063	8741.1
293.517	8721
293.971	9020.9
294.425	9208.5
294.879	9474.3
295.333	9405.8
295.787	9199.3
296.241	9085
296.694	9125.4
297.148	9598.6
297.602	9864.1
298.055	9806.1
298.509	9505.1
298.962	8988.8
299.416	8869.7
299.869	9019
300.322	9028
300.775	8975
301.229	8740.4
301.682	8610.5
302.135	8547.5
302.588	8363.3
303.041	8143.7
303.494	7853.6
303.947	7443.4
304.4	7185.4
304.852	6908.3
305.305	6621.6
305.758	6283.9
306.21	5854.3
306.663	5619
307.115	5509.1
307.568	5563.2
308.02	5555.2
308.473	5460.4
308.925	5161.3
309.377	4999.4
309.829	4931.1
310.282	4902.5
310.734	4824.6
311.186	4644.4
311.638	4428.8
312.09	4209.5
312.542	4034.2
312.993	3765.8
313.445	3616.8
313.897	3499
314.349	3352.7
314.8	3265.9
315.252	3186.9
315.703	3119.9
316.155	3041.3
316.606	2991.3
317.058	2876
317.509	2869.7
317.96	2874.5
318.411	2699.6
318.863	2642.1
319.314	2510.1
319.765	2336.3
320.216	2235.3
320.667	2075.3
321.117	1974.1
321.568	1924.9
322.019	1902
322.47	1838.8
322.921	1774.5
323.371	1681.6
323.822	1563.4
324.272	1443.5
324.723	1387.3
325.173	1334.8
325.623	1235
326.074	1155
326.524	1119.6
326.974	1281.3
327.424	1865.3
327.874	2274.6
328.325	1767.3
328.775	1232.5
329.224	1151.3
329.674	1072.8
330.124	1038.1
330.574	994.3
331.024	923.8
331.473	860.9
331.923	779.9
332.373	727.2
332.822	678.5
333.272	614.7
333.721	578.2
334.17	546.8
334.62	510.2
335.069	472.2
335.518	444.4
335.967	410.1
336.416	380.5
336.865	370.1
337.314	351.4
337.763	318.7
338.212	278.5
338.661	249.3
339.11	230.2
339.558	221.4
340.007	219.4
340.456	205.6
340.904	221.4
341.353	197.9
341.801	186.9
342.25	183.4
342.698	169
343.146	151.2
343.595	139.9
344.043	125.7
344.491	120.5
344.939	115.5
345.387	104.2
345.835	105.6
346.283	96.9
346.731	87.1
347.179	86
347.626	74
348.074	62.5
348.522	64.5
348.969	62.3
349.417	59.1
349.865	60.5
350.312	57.7
350.759	48.6
351.207	34.4
351.654	36.4
352.101	27.6
352.548	25.1
352.996	27.4
353.443	34.6
353.89	34.1
354.337	23.6
354.784	27.5
355.231	17.8
355.677	14.7
356.124	23.8
356.571	21.3
357.018	22.1
357.464	15.6
357.911	18
358.357	18.2
358.804	27.6
359.25	10.9
359.696	17
360.143	14.2
360.589	12.2
361.035	11.9
361.481	13.2
361.927	9.3
362.373	9.9
362.819	6.8
363.265	5.4
363.711	9.8
364.157	8.6
364.603	6
365.048	15.4
365.494	5
365.94	10.5
366.385	4.5
366.831	12.9
367.276	6
367.722	5.8
368.167	7.2
368.612	13.1
369.057	8.8
369.503	5.9
369.948	4.3
370.393	10.3
370.838	8.5
371.283	12.9
371.728	18
372.173	6
372.617	15.7
373.062	5.2
373.507	-1.9
373.951	9.6
374.396	4.8
374.841	10
375.285	6.6
375.729	4.7
376.174	9.4
376.618	3.3
377.062	-2.9
377.507	5.5
377.951	17.1
378.395	-3.1
378.839	11.5
379.283	2.4
379.727	8.9
380.171	6
380.615	2.1
381.059	4.7
381.502	6.6
381.946	6.7
382.39	10.6
382.833	6.9
383.277	3.1
383.72	13.5
384.164	10.2
384.607	17.1
385.05	-2.4
385.494	16.5
385.937	7.7
386.38	15.4
386.823	10.6
387.266	5.1
387.709	4.6
388.152	5.1
388.595	-6.1
389.038	2.9
389.481	2.3
389.923	4.3
390.366	1.7
390.809	3.9
391.251	10.8
391.694	7.8
392.136	2.9
392.579	4.9
393.021	8.3
393.463	8.2
393.906	9.4
394.348	6.9
394.79	3.2
395.232	5.6
395.674	12.5
396.116	2.7
396.558	6.9
397	3.3
397.442	6.3
397.884	-1.6
398.325	6
398.767	8.1
399.209	7.9
399.65	3.5
400.092	7.2
400.533	3
400.974	14.9
401.416	4.8
401.857	-1.8
402.298	12.1
402.74	11.5
403.181	4.8
403.622	2.2
404.063	8.3
404.504	9
404.945	5
405.386	2.1
405.826	13.5
406.267	-5
406.708	7.5
407.149	7.7
407.589	9
408.03	3.5
408.47	10.7
408.911	7.6
409.351	3.3
409.791	11
410.232	-0.5
410.672	2
411.112	3.8
411.552	7
411.992	14.5
412.432	5.4
412.872	2.7
413.312	2.6
413.752	16.8
414.192	-4.9
414.632	13.2
415.071	13.7
415.511	1.1
415.951	7.5
416.39	7.2
416.83	6.2
417.269	6.8
417.708	1.2
418.148	3.5
418.587	11.6
419.026	4.2
419.465	6.1
419.904	4.2
420.344	20.1
420.783	-0.7
421.221	0.1
421.66	1.4
422.099	6
422.538	13.3
422.977	2.9
423.415	2.3
423.854	7
424.293	9.6
424.731	9.6
425.17	15.9
425.608	-3.1
426.046	12.2
426.485	17.7
426.923	11.4
427.361	7.5
427.799	3.4
428.237	6.1
428.675	14.4
429.113	-0.8
429.551	6.7
429.989	7.8
430.427	8.1
430.865	18.2
431.303	8.1
431.74	10.2
432.178	2.8
432.615	-1.2
433.053	9.1
433.49	0.9
433.928	6.9
434.365	0.5
434.802	9.2
435.24	6.5
435.677	11.3
436.114	17
436.551	2.1
436.988	3.9
437.425	4.9
437.862	7.8
438.299	15.7
438.736	11.6
439.172	-5.1
439.609	9.9
440.046	4.9
440.482	3.1
440.919	4
441.355	2.7
441.792	0.4
442.228	3.5
442.665	5.7
443.101	5.2
443.537	1.5
443.973	5
444.409	3
444.845	5.5
445.281	-0.3
445.717	5.5
446.153	9.8
446.589	12.1
447.025	12
447.461	4.7
447.896	1.6
448.332	9.2
448.768	6
449.203	10.2
449.639	8.8
450.074	0.2
450.509	1.7
450.945	6
451.38	7.1
451.815	4.5
452.25	6.5
452.685	3.4
453.12	10.5
453.555	-6
453.99	1.6
454.425	5.6
454.86	9.3
455.295	0.3
455.73	4.3
456.164	19.1
456.599	11.9
457.033	7.4
457.468	8.3
457.902	7.7
458.337	1
458.771	2.1
459.205	2.8
459.64	9.6
460.074	7.2
460.508	1.3
460.942	2.2
461.376	-3.8
461.81	3.8
462.244	8.6
462.678	6.9
463.112	2.1
463.545	8
463.979	9.7
464.413	5.6
464.846	0.1
465.28	12.7
465.713	13.3
466.147	10.4
466.58	8.9
467.014	11.4
467.447	7.6
467.88	15
468.313	8.2
468.746	18.5
469.179	2.6
469.612	10.4
470.045	0.1
470.478	2.3
470.911	10.7
471.344	2.1
471.777	10.2
472.209	10.2
472.642	6.3
473.074	13
473.507	19.9
473.939	18.5
474.372	14.5
474.804	9.5
475.236	9
475.669	8.8
476.101	12.9
476.533	8.3
476.965	8.3
477.397	-1.6
477.829	25.5
478.261	13.3
478.693	10.2
479.125	9.5
479.557	15
479.988	18
480.42	15.5
480.852	19.4
481.283	23.5
481.715	18.4
482.146	10.2
482.577	17.8
483.009	24.2
483.44	17.8
483.871	9.2
484.302	17.8
484.734	14.5
485.165	15.7
485.596	17.8
486.027	18.7
486.457	6.9
486.888	7.5
487.319	11.7
487.75	7.2
488.181	14.6
488.611	16.5
489.042	11
489.472	14.5
489.903	7.8
490.333	13.4
490.764	9.8
491.194	7.2
491.624	7.3
492.054	12.6
492.484	7.7
492.915	15.7
493.345	6.7
493.775	8.8
494.204	9.9
494.634	11.9
495.064	17.4
495.494	7.2
495.924	4.2
496.353	10.7
496.783	2.8
497.212	6
497.642	14.1
498.071	4.7
498.501	8.3
498.93	7.6
499.359	10.5
499.789	0.9
500.218	8.7
500.647	4.6
501.076	7
501.505	10
501.934	9.7
502.363	6.5
502.792	6.4
503.221	14.1
503.649	7.2
504.078	1.5
504.507	2.8
504.935	7.4
505.364	2.5
505.792	-2.6
506.221	1.9
506.649	7.9
507.077	-0.9
507.506	11.4
507.934	17.8
508.362	2.5
508.79	4.6
509.218	13.2
509.646	2.7
510.074	7.1
510.502	18
510.93	1.4
511.357	9.4
511.785	9
512.213	9.8
512.64	-3.2
513.068	3.9
513.496	14.6
513.923	6.8
514.35	5.1
514.778	9.8
515.205	2.9
515.632	8.3
516.059	4.5
516.486	5.4
516.914	9.2
517.341	14.9
517.768	6.9
518.194	6.8
518.621	9.5
519.048	6.4
519.475	10.4
519.902	1.7
520.328	5.6
520.755	12.8
521.181	1.8
521.608	7.2
522.034	2.5
522.461	2.2
522.887	10.1
523.313	10.6
523.739	6.2
524.165	11.9
524.592	4.2
525.018	19.1
525.444	4.7
525.869	-0.8
526.295	12
526.721	4.5
527.147	11.2
527.573	13.3
527.998	-0.3
528.424	7.3
528.849	-4.4
529.275	3.8
529.7	5.3
530.126	10.8
530.551	4.9
530.976	4.8
531.402	-5.4
531.827	11.3
532.252	7.9
532.677	12.4
533.102	2.2
533.527	12.1
533.952	5.2
534.377	9
534.801	3.2
535.226	-2
535.651	4.3
536.076	-2.7
536.5	5.3
536.925	-0.5
537.349	6.4
537.773	2.6
538.198	10.2
538.622	22.9
539.046	10.5
539.471	17.9
539.895	4.5
540.319	3.5
540.743	5.5
541.167	-2.2
541.591	10.6
542.015	13.3
542.438	8
542.862	0.9
543.286	0.8
543.71	7.2
544.133	11
544.557	15.8
544.98	4.8
545.404	10.9
545.827	-2.6
546.25	10.9
546.674	12.5
547.097	8.1
547.52	9
547.943	6.4
548.366	11.9
548.789	2.1
549.212	7.3
549.635	12
550.058	9.4
550.481	10.9
550.903	15
551.326	14.2
551.749	5.1
552.171	21.1
552.594	19.5
553.016	15.3
553.438	10.4
553.861	10.8
554.283	5.5
554.705	7.5
555.128	7.6
555.55	17.3
555.972	7.5
556.394	1.8
556.816	-0.3
557.238	7.2
557.659	10
558.081	10.1
558.503	14.3
558.925	23.4
559.346	1.9
559.768	7.6
560.189	3.7
560.611	8.6
561.032	-3.6
561.454	2.1
561.875	8
562.296	2.1
562.718	5.7
563.139	12.5
563.56	8.5
563.981	11.5
564.402	10.1
564.823	14.6
565.244	2.4
565.664	13.9
566.085	13.9
566.506	4.4
566.927	-1.2
567.347	14.3
567.768	15.3
568.188	16.7
568.609	1.7
569.029	0.8
569.449	8.7
569.87	7.4
570.29	-0.8
570.71	4
571.13	-4.8
571.55	3.7
571.97	2.9
572.39	8.5
572.81	4.9
573.23	6.4
573.65	10.2
574.069	1
574.489	-1.5
574.909	-4.5
575.328	-4.6
575.748	9.8
576.167	8.5
576.587	12.8
577.006	-2.9
577.425	5.1
577.844	4.9
578.264	1.3
578.683	8.1
579.102	-5
579.521	1
579.94	3
580.359	1.6
580.778	6.5
581.196	1.8
581.615	0.5
582.034	-0.4
582.452	8.5
582.871	-0.8
583.29	1.6
583.708	5.7
584.126	6.1
584.545	4.4
584.963	6.6
585.381	12.8
585.8	-0.4
586.218	12.9
586.636	-1.4
587.054	-6.1
587.472	5.7
587.89	2.2
588.308	10.1
588.725	-1
589.143	-1.5
589.561	-2.7
589.979	-1.9
590.396	-4.4
590.814	5.5
591.231	2.9
591.649	8.7
592.066	0.8
592.483	-9.7
592.901	-1
593.318	-2.3
593.735	-1.3
594.152	7
594.569	-2.7
594.986	6.5
595.403	-2
595.82	2.3
596.237	-2.4
596.654	6
597.07	10.6
597.487	1.5
597.904	2.7
598.32	14.4
598.737	6.8
599.153	-2.6
599.57	5.9
599.986	8.2
600.402	-2.1
600.818	9.5
601.235	1.3
601.651	-5.5
602.067	6.7
602.483	-1.7
602.899	12.9
603.315	-7.8
603.73	5.9
604.146	-0.5
604.562	7.9
604.978	-0.1
605.393	-1.9
605.809	-1.9
606.224	5.8
606.64	-5.9
607.055	9.7
607.471	0.9
607.886	5.6
608.301	3.8
608.716	7
609.131	1.2
609.547	0.4
609.962	6.8
610.377	2.7
610.791	0.8
611.206	0.4
611.621	9.3
612.036	2
612.451	12.9
612.865	3.5
613.28	6.9
613.694	6.4
614.109	8.8
614.523	2.7
614.938	9.9
615.352	10.2
615.766	8
616.18	22.5
616.595	17.5
617.009	0.9
617.423	17.9
617.837	7
618.251	17
618.664	10.3
619.078	26.1
619.492	16
619.906	24.4
620.319	6.4
620.733	16.9
621.146	15.8
621.56	15.8
621.973	15.5
622.387	15.7
622.8	17.4
623.213	22.5
623.627	22.7
624.04	20.8
624.453	28.7
624.866	19.7
625.279	21.7
625.692	35.7
626.105	40.9
626.518	45.8
626.93	44.9
627.343	44.3
627.756	39.2
628.168	50.5
628.581	54.2
628.993	32.4
629.406	58
629.818	48.9
630.231	66.8
630.643	67.3
631.055	65.4
631.467	73.2
631.879	75
632.291	69.3
632.703	77.1
633.115	88.2
633.527	102.5
633.939	109.4
634.351	105.4
634.763	114.3
635.174	113.6
635.586	118.3
635.997	119.1
636.409	126.4
636.82	118.7
637.232	133.2
637.643	122.9
638.054	131.4
638.466	132.3
638.877	117.9
639.288	134.5
639.699	140.8
640.11	134.7
640.521	141.6
640.932	132.2
641.343	133.7
641.753	138
642.164	129.7
642.575	137.9
642.986	139.9
643.396	155.6
643.807	143.8
644.217	155.8
644.627	154.7
645.038	152.9
645.448	165
645.858	153.3
646.269	147.8
646.679	166.8
647.089	173.6
647.499	166.3
647.909	171.2
648.319	171.9
648.728	163.8
649.138	164.1
649.548	162.6
649.958	161.8
650.367	169.8
650.777	171.7
651.186	169.7
651.596	169
652.005	157.5
652.415	164.9
652.824	166.4
653.233	135.8
653.642	145.8
654.052	138.9
654.461	145.3
654.87	136.5
655.279	134.1
655.688	118.9
656.096	122.6
656.505	126.7
656.914	126.8
657.323	118.5
657.731	113.6
658.14	121.5
658.548	108.2
658.957	104.1
659.365	107.9
659.774	103.6
660.182	95.6
660.59	96.6
660.998	100.5
661.407	104.5
661.815	101.2
662.223	87.1
662.631	95.1
663.039	93.9
663.446	94.4
663.854	84.5
664.262	89.3
664.67	85.3
665.077	68.4
665.485	73
665.892	74.2
666.3	59.4
666.707	56.8
667.115	61.5
667.522	44.4
667.929	52.8
668.337	54.8
668.744	53
669.151	38.3
669.558	46.7
669.965	39.4
670.372	37.9
670.779	39.8
671.185	34
671.592	37.5
671.999	15.9
672.405	27.1
672.812	16.6
673.219	22.3
673.625	26.2
674.032	24.6
674.438	19.6
674.844	15.4
675.25	21.7
675.657	16.7
676.063	19.3
676.469	19.3
676.875	13.9
677.281	15.5
677.687	13.8
678.093	14.6
678.499	6.9
678.904	8.2
679.31	15.9
679.716	3.1
680.121	0.6
680.527	6.4
680.932	7.8
681.338	12.8
681.743	5
682.148	1.9
682.554	7
682.959	6.6
683.364	5.6
683.769	8.1
684.174	4.1
684.579	9.6
684.984	5
685.389	7.3
685.794	2.1
686.199	6.1
686.603	3.1
687.008	4.8
687.413	2.7
687.817	-2.1
688.222	13.6
688.626	-0.7
689.03	7.8
689.435	2.5
689.839	18.8
690.243	1.6
690.647	4.9
691.051	5.5
691.456	-4.3
691.859	9.4
692.263	5.2
692.667	7.4
693.071	0.6
693.475	6.6
693.879	3.5
694.282	5.8
694.686	-0.2
695.089	5.7
695.493	8.8
695.896	10.2
696.3	-2.5
696.703	2.1
697.106	10
697.509	6
697.913	-2.5
698.316	15.3
698.719	6.4
699.122	-6.5
699.525	-5.4
699.928	-0.5
700.33	3.5
700.733	9.4
701.136	-0.3
701.539	9.5
701.941	2.5
702.344	6.4
702.746	-13.4
703.149	6.5
703.551	-7.3
703.953	5.6
704.356	-0.3
704.758	0.2
705.16	2.9
705.562	13
705.964	6.2
706.366	14.6
706.768	4
707.17	-0.8
707.572	1
707.973	-4.4
708.375	-5.8
708.777	-3.2
709.178	3.2
709.58	-1.1
709.981	0.3
710.383	17.3
710.784	12
711.186	-1.5
711.587	1.8
711.988	4.7
712.389	0.6
712.79	15.3
713.191	10.9
713.592	-4.4
713.993	3
714.394	2.5
714.795	7.6
715.196	4.7
715.596	2.5
715.997	1.8
716.398	1.1
716.798	3.5
717.199	-1.4
717.599	1.1
718	-5.6
718.4	7.9
718.8	8.7
719.2	3
719.6	5.5
720.001	2.5
720.401	3
720.801	7.7
721.201	1.8
721.6	4.9
722	5.7
722.4	6.5
722.8	9.2
723.199	3.6
723.599	7.9
723.998	2.8
724.398	8.7
724.797	0.4
725.197	-1.7
725.596	-1.9
725.995	0.1
726.394	10.7
726.794	-2.7
727.193	4.1
727.592	1.5
727.991	-0.5
728.39	3.4
728.789	14.2
729.187	0
729.586	2.8
729.985	-5.2
730.383	7.2
730.782	5.1
731.181	5.5
731.579	9.4
731.977	-1
732.376	1.2
732.774	-0.3
733.172	-0.4
733.571	7.3
733.969	5
734.367	6.5
734.765	11.6
735.163	2.8
735.561	14.8
735.959	12.2
736.356	11.5
736.754	8.7
737.152	4.1
737.55	4.9
737.947	14.2
738.345	20.6
738.742	13.3
739.14	11.2
739.537	6.7
739.934	18.7
740.331	13.9
740.729	18.2
741.126	26.5
741.523	12.3
741.92	11.4
742.317	12.2
742.714	17
743.111	3
743.507	12.1
743.904	10.7
744.301	17.5
744.697	13
745.094	11.9
745.491	13
745.887	18.8
746.283	14.4
746.68	19.3
747.076	21.4
747.472	24.2
747.869	20.4
748.265	24.3
748.661	21.7
749.057	20.9
749.453	23
749.849	18
750.244	25
750.64	31.8
751.036	28.5
751.432	31
751.827	24.7
752.223	31.9
752.618	21.2
753.014	19.2
753.409	21.1
753.805	22.9
754.2	17.5
754.595	27.1
754.99	24.4
755.385	26.6
755.78	23.8
756.175	31.8
756.57	24.3
756.965	34
757.36	28.2
757.755	28.4
758.15	37.9
758.544	41.4
758.939	58.9
759.334	64.2
759.728	57.3
760.122	71
760.517	75.4
760.911	71.8
761.306	70.9
761.7	63.5
762.094	58.2
762.488	60.2
762.882	62.9
763.276	60.2
763.67	50
764.064	56.3
764.458	60
764.852	63.7
765.245	67.1
765.639	71.1
766.033	74.5
766.426	75.8
766.82	82.4
767.213	78.6
767.606	78.3
768	80.8
768.393	78.8
768.786	68.1
769.179	79.8
769.572	78.1
769.966	70.6
770.358	76
770.751	63.9
771.144	51.7
771.537	52.4
771.93	53.8
772.323	47.3
772.715	52.1
773.108	54.6
773.5	47.9
773.893	44.7
774.285	51.7
774.678	45.8
775.07	45.1
775.462	50.7
775.854	33.7
776.247	46.5
776.639	46.2
777.031	31.1
777.423	41.1
777.815	33.3
778.207	39.6
778.598	32.8
778.99	39
779.382	50.1
779.773	68.7
780.165	71.8
780.557	95.1
780.948	92.8
781.339	107.4
781.731	110.9
782.122	120.1
782.513	118.7
782.905	119.5
783.296	111.9
783.687	111.5
784.078	97.4
784.469	100
784.86	93.4
785.251	93.5
785.641	80.7
786.032	81.2
786.423	88.3
786.813	87.7
787.204	83.5
787.594	84.9
787.985	86.6
788.375	73.4
788.766	65.4
789.156	50.7
789.546	61
789.936	46.7
790.326	44.9
790.717	46.9
791.107	55.9
791.497	43
791.886	36
792.276	49.1
792.666	29.6
793.056	26.1
793.445	28.6
793.835	25.2
794.225	16.6
794.614	28.1
795.004	18
795.393	15.6
795.782	21.1
796.172	23.3
796.561	44
796.95	34.3
797.339	23.2
797.728	28.1
798.117	26.6
798.506	32.7
798.895	23.3
799.284	27.1
799.673	25.3
800.061	22.6
800.45	24.7
800.839	16.6
801.227	13.2
801.616	14
802.004	12.8
802.392	7.8
802.781	20.1
803.169	14.1
803.557	5.3
803.945	11.3
804.333	3.3
804.721	10.8
805.109	12.5
805.497	2
805.885	14.4
806.273	8.4
806.661	13.2
807.048	15.8
807.436	5.6
807.824	4.9
808.211	0.2
808.599	1.6
808.986	14.7
809.373	1.6
809.761	0.8
810.148	4.6
810.535	15.7
810.922	4.3
811.309	6.7
811.696	7.6
812.083	15.7
812.47	4.8
812.857	11.9
813.244	-2.1
813.631	-8.4
814.017	-12.7
814.404	17.4
814.791	3.1
815.177	7.3
815.564	11
815.95	10.7
816.336	11
816.723	1.8
817.109	1.6
817.495	10.6
817.881	7.1
818.267	5.3
818.653	5.6
819.039	-5.9
819.425	1.2
819.811	3.2
820.197	0.9
820.582	0
820.968	5.1
821.354	-0.4
821.739	-4.9
822.125	6.5
822.51	1.4
822.895	10.8
823.281	6
823.666	8.1
824.051	11.8
824.436	8.2
824.822	-1.5
825.207	-0.8
825.592	7.8
825.976	14.5
826.361	9.6
826.746	9.7
827.131	-0.1
827.516	-0.4
827.9	5.4
828.285	5.3
828.669	-0.4
829.054	7.6
829.438	0.4
829.823	0.8
830.207	4.9
830.591	8.2
830.975	0.7
831.36	-0.2
831.744	5.9
832.128	-4.3
832.512	4.4
832.895	0.8
833.279	-0.1
833.663	8.7
834.047	0.5
834.431	4.2
834.814	6.7
835.198	-5.5
835.581	-4.1
835.965	1.4
836.348	-2.4
836.731	-6.1
837.115	5.6
837.498	7.9
837.881	10.1
838.264	8.5
838.647	-2.3
839.03	9.3
839.413	1
839.796	10.3
840.179	-4
840.562	4.6
840.944	-2.5
841.327	2.3
841.71	10.4
842.092	6.7
842.475	1.3
842.857	3.5
843.24	6.2
843.622	7.8
844.004	10
844.386	7.1
844.769	4.6
845.151	5.1
845.533	9.4
845.915	3.2
846.297	10.1
846.678	-0.3
847.06	4.3
847.442	5.5
847.824	3.7
848.205	2.6
848.587	-3.8
848.968	4.2
849.35	-0.2
849.731	7.5
850.113	1.5
850.494	-2.8
850.875	-5.8
851.256	3.1
851.638	8.7
852.019	2.4
852.4	8
852.781	8.6
853.161	8.3
853.542	2
853.923	-6.4
854.304	-6.2
854.685	-1.6
855.065	0.4
855.446	-0.1
855.826	6
856.207	5.8
856.587	13.6
856.967	2.9
857.348	6.2
857.728	8.6
858.108	8.2
858.488	3.1
858.868	1.4
859.248	8.9
859.628	-0.9
860.008	4.7
860.388	13.2
860.768	-3
861.147	-5.1
861.527	9.8
861.907	3.4
862.286	9
862.666	11.1
863.045	3.5
863.424	3.4
863.804	-0.6
864.183	-8.1
864.562	3
864.941	8.6
865.32	6.4
865.699	1
866.078	2.2
866.457	0
866.836	1.3
867.215	14.5
867.594	4.3
867.972	-4.7
868.351	3.8
868.729	5.5
869.108	2.2
869.486	6.2
869.865	1.1
870.243	2.9
870.621	0.7
871	7.2
871.378	11.6
871.756	-1.5
872.134	8.8
872.512	10.3
872.89	8.5
873.268	11
873.646	8.6
874.023	-3.9
874.401	5.7
874.779	-0.5
875.156	2.8
875.534	4
875.911	2.4
876.289	0.5
876.666	-15.3
877.043	13.7
877.421	-0.6
877.798	0.5
878.175	2.6
878.552	0.1
878.929	0.1
879.306	2.1
879.683	5.3
880.06	0
880.437	9.5
880.813	3.7
881.19	-3.3
881.567	6.9
881.943	6.7
882.32	4
882.696	3.4
883.073	-3.7
883.449	-1.5
883.825	2.9
884.202	-2.7
884.578	3.1
884.954	2.8
885.33	3.6
885.706	-2.6
886.082	-2.2
886.458	5.6
886.834	11
887.209	2
887.585	6.8
887.961	3.6
888.336	12.1
888.712	10.9
889.087	-2.9
889.463	1.8
889.838	0.9
890.213	-1.4
890.589	5.3
890.964	4.3
891.339	9.2
891.714	-0.6
892.089	-0.4
892.464	12.8
892.839	-1.2
893.214	3.7
893.589	7.5
893.963	8.4
894.338	4.7
894.713	-1
895.087	6.8
895.462	1.7
895.836	5.2
896.211	3.1
896.585	12.7
896.959	12.4
897.334	8.5
897.708	7.8
898.082	9.6
898.456	11.7
898.83	22.9
899.204	16.6
899.578	7.4
899.952	8.3
900.325	10.6
900.699	-1.5
901.073	6
901.446	7.4
901.82	8
902.193	4.8
902.567	14.1
902.94	11.2
903.313	13.1
903.687	2.7
904.06	6.1
904.433	12.9
904.806	10.7
905.179	7.2
905.552	15.7
905.925	11.6
906.298	12.3
906.671	11.6
907.043	8.2
907.416	10.2
907.789	6.1
908.161	2.5
908.534	10.9
908.906	14.5
909.279	11.3
909.651	14.6
910.023	1.7
910.396	9.2
910.768	11.1
911.14	6.9
911.512	10.1
911.884	7.3
912.256	6.3
912.628	15.2
912.999	13.9
913.371	3.4
913.743	13.1
914.115	0.6
914.486	15.4
914.858	8.4
915.229	12.7
915.601	12.7
915.972	5.3
916.343	13.4
916.715	15.4
917.086	16.1
917.457	13.2
917.828	2
918.199	19.5
918.57	9.6
918.941	2.9
919.312	-8.1
919.682	6.7
920.053	3.7
920.424	3
920.794	8
921.165	9.7
921.536	13.9
921.906	21.5
922.276	6.4
922.647	-8
923.017	14
923.387	3.2
923.757	1.4
924.127	11.6
924.497	11.2
924.867	3.4
925.237	11.8
925.607	14
925.977	9.2
926.347	15.8
926.716	17.1
927.086	8.8
927.456	2.1
927.825	6.7
928.195	3.7
928.564	9.9
928.933	11.5
929.303	12.3
929.672	11.2
930.041	8.7
930.41	12.9
930.779	5.6
931.148	17.1
931.517	4.4
931.886	10.6
932.255	-1.2
932.624	9.9
932.993	9.3
933.361	11.2
933.73	12.4
934.098	6.9
934.467	11.8
934.835	13.4
935.204	7.8
935.572	10.7
935.94	7.9
936.308	17
936.677	10.1
937.045	9.5
937.413	10.3
937.781	9.5
938.149	14.7
938.516	12.4
938.884	22.8
939.252	14.5
939.62	14.1
939.987	13.9
940.355	14
940.722	8
941.09	14.5
941.457	11.6
941.825	5.1
942.192	4.1
942.559	12.1
942.926	3.5
943.293	17.2
943.66	9.6
944.027	7.8
944.394	4
944.761	12.3
945.128	19.2
945.495	14.2
945.861	7.8
946.228	21
946.595	10
946.961	17.4
947.328	18.5
947.694	1.2
948.06	4.3
948.427	12.2
948.793	7.2
949.159	-1.4
949.525	8.9
949.891	6.9
950.257	-2.9
950.623	11.1
950.989	10.7
951.355	17.6
951.721	14.7
952.087	6.2
952.452	3.2
952.818	8
953.183	8.9
953.549	1
953.914	17.2
954.28	11.4
954.645	8.6
955.01	7.8
955.375	8.4
955.741	0.1
956.106	10.8
956.471	8.3
956.836	3.5
957.201	7.6
957.566	5.5
957.93	9.2
958.295	10.3
958.66	9.4
959.024	10.8
959.389	5.1
959.753	16.3
960.118	3.2
960.482	-5.2
960.847	8.9
961.211	5.4
961.575	8.1
961.939	5.6
962.303	6
962.667	6.2
963.031	-2
963.395	4.5
963.759	4
964.123	2.4
964.487	4.2
964.851	0
965.214	12.1
965.578	-0.7
965.941	-0.9
966.305	9.5
966.668	14
967.032	1.3
967.395	-2.1
967.758	3.3
968.121	9.3
968.484	8
968.847	2.9
969.21	1.4
969.573	5.9
969.936	-5
970.299	1.3
970.662	5
971.025	8.6
971.387	13.3
971.75	4.7
972.112	-2.5
972.475	7.2
972.837	8.8
973.2	10.6
973.562	10.2
973.924	5.3
974.286	8.2
974.649	-0.1
975.011	4
975.373	6.9
975.735	1.5
976.097	5.1
976.458	4.6
976.82	6.9
977.182	2.5
977.544	5.2
977.905	-2.2
978.267	8.6
978.628	9
978.99	1.6
979.351	-1.1
979.712	-1.1
980.074	3.3
980.435	15.8
980.796	-1.1
981.157	2.2
981.518	7.2
981.879	9.8
982.24	-0.7
982.601	11.5
982.962	-0.9
983.323	3.6
983.683	6.7
984.044	9.3
984.404	18
984.765	3.9
985.125	11.3
985.486	-1.9
985.846	1.1
986.206	2.2
986.567	7.4
986.927	3
987.287	6.4
987.647	-1.9
988.007	4.6
988.367	8.7
988.727	5.1
989.087	3.7
989.446	8.3
989.806	7.8
990.166	4.3
990.525	11.9
990.885	7.4
991.244	1.9
991.604	9.4
991.963	0.5
992.322	0.5
992.682	-0.9
993.041	5.1
993.4	0.3
993.759	6
994.118	7.5
994.477	2.5
994.836	5.1
995.195	6.1
995.553	5.3
995.912	-0.8
996.271	5.5
996.629	3.9
996.988	11.8
997.346	3.4
997.705	4.1
998.063	11.8
998.422	3.3
998.78	10.7
999.138	11.2
999.496	-1.4
999.854	3
1000.212	0.4
1000.57	3.7
1000.928	6.5
1001.286	8.5
1001.644	6.2
1002.001	7.1
1002.359	13.2
1002.717	10.3
1003.074	8.2
1003.432	5.2
1003.789	1.5
1004.147	9.6
1004.504	2
1004.861	13.3
1005.218	2.9
1005.576	7.7
1005.933	9.3
1006.29	-5.4
1006.647	4.4
1007.004	12.8
1007.36	4.7
1007.717	7.8
1008.074	14.6
1008.431	7.6
1008.787	3.5
1009.144	1.8
1009.5	6.8
1009.857	4.8
1010.213	-1.5
1010.569	4.3
1010.926	7.6
1011.282	7.3
1011.638	2.2
1011.994	-1.1
1012.35	5.4
1012.706	10.6
1013.062	4.7
1013.418	11.6
1013.774	-2.1
1014.13	4.9
1014.485	11.5
1014.841	-3.5
1015.197	5
1015.552	-1.8
1015.907	5.1
1016.263	11.4
1016.618	-1.8
1016.974	5.8
1017.329	2.5
1017.684	2.7
1018.039	-2.1
1018.394	4.7
1018.749	0.3
1019.104	-9.8
1019.459	4.9
1019.814	1.3
1020.168	5.5
1020.523	4.5
1020.878	8.6
1021.232	-3.3
1021.587	2.4
1021.941	2.3
1022.296	7
1022.65	-0.9
1023.004	11.7
1023.359	3.7
1023.713	2.5
1024.067	-1.8
1024.421	-3.8
1024.775	-1.7
1025.129	6.9
1025.483	5.1
1025.837	6
1026.19	8.4
1026.544	2.8
1026.898	1.7
1027.251	5.7
1027.605	5.3
1027.958	-1.7
1028.312	1.6
1028.665	-0.1
1029.018	12.6
1029.372	8.5
1029.725	12.8
1030.078	8.2
1030.431	9.1
1030.784	8.9
1031.137	1.4
1031.49	1.2
1031.843	-0.3
1032.195	5.8
1032.548	0.6
1032.901	9.2
1033.253	11.3
1033.606	7.1
1033.958	6.2
1034.311	5.5
1034.663	3.7
1035.016	0.6
1035.368	-3.3
1035.72	7.2
1036.072	1.5
1036.424	12.5
1036.776	10
1037.128	-2
1037.48	-0.8
