Data from 0.30bar_Subt2__0__18-03-29-249.txt Node

Date: Thu Jan 06 18:03:29 CET 2022
User: fsatto
Spectrometer: OFX01956
Trigger mode: 0
Integration Time (sec): 2.000000E-3
Scans to average: 10
Nonlinearity correction enabled: false
Boxcar width: 0
Storing dark spectrum: false
XAxis mode: Wavelengths
Number of Pixels in Spectrum: 2136
>>>>>Begin Spectral Data<<<<<
158.236	-2.9
158.705	-7.8
159.174	-2.3
159.643	-3.3
160.112	2.7
160.582	0.4
161.051	8.6
161.52	-5.8
161.988	-1.1
162.457	4.9
162.926	2.7
163.395	1.2
163.864	-5.8
164.332	2.2
164.801	-7.2
165.269	-3.8
165.738	4.3
166.206	-2.7
166.675	2.6
167.143	0.3
167.612	1.6
168.08	5.3
168.548	0.8
169.016	4.6
169.484	-1.9
169.952	5.1
170.42	-5.9
170.888	1.2
171.356	0.4
171.824	-1.5
172.292	-7.9
172.759	2.5
173.227	2.3
173.695	-0.9
174.162	7.2
174.63	6.4
175.097	-4.4
175.565	-3.9
176.032	-7.2
176.499	-7.5
176.967	5
177.434	-4.6
177.901	-1.3
178.368	5.9
178.835	2.6
179.302	3.1
179.769	4.4
180.236	5.2
180.703	-9.3
181.17	-1.3
181.637	-6.4
182.103	-2.4
182.57	1.1
183.036	-6.2
183.503	6.6
183.97	3.8
184.436	3.8
184.902	3.9
185.369	0.9
185.835	4
186.301	4.3
186.767	0.1
187.234	-1.9
187.7	-5.8
188.166	1.6
188.632	-8.8
189.098	2.3
189.563	-5.8
190.029	-2.5
190.495	1.1
190.961	1.6
191.426	-6.3
191.892	1.8
192.358	1.7
192.823	-1.3
193.289	8.2
193.754	-0.4
194.219	-1.7
194.685	7.6
195.15	-0.6
195.615	-3.3
196.08	6
196.545	2
197.01	1.7
197.475	1.4
197.94	-7.3
198.405	5.6
198.87	-5.3
199.335	-4.6
199.8	-5.3
200.264	64.5
200.729	82.4
201.193	77.4
201.658	73.1
202.122	81.7
202.587	82.5
203.051	78.9
203.516	91.2
203.98	80.6
204.444	91.3
204.908	97.2
205.372	112.5
205.836	105.3
206.3	109.3
206.764	114.9
207.228	112.3
207.692	112.5
208.156	124.4
208.62	132
209.083	137
209.547	148.9
210.011	165.9
210.474	191.3
210.938	222.3
211.401	255.2
211.864	291.4
212.328	328.5
212.791	394.4
213.254	483.1
213.717	573.7
214.181	679.6
214.644	799
215.107	894.6
215.57	1010
216.033	1152.3
216.495	1387.7
216.958	1648
217.421	1730.5
217.884	1852.7
218.346	2079.4
218.809	2345.3
219.272	2667.3
219.734	2990.8
220.196	3244.9
220.659	3595.7
221.121	3976.4
221.584	4505.2
222.046	5219.5
222.508	5724.2
222.97	6120.5
223.432	6524.7
223.894	7142.8
224.356	8045.7
224.818	8871.2
225.28	9685.2
225.742	10471.2
226.204	12020.4
226.665	12958.7
227.127	13667.9
227.589	14650.2
228.05	15847.7
228.512	16747.7
228.973	17042.9
229.435	16335.9
229.896	15534.6
230.357	16331.2
230.818	18092.2
231.28	18856.6
231.741	18768.1
232.202	17924
232.663	16833.8
233.124	17422.2
233.585	19639
234.046	21582.2
234.507	21321.9
234.967	19253.8
235.428	18097.7
235.889	18919.8
236.349	21583.7
236.81	24722.8
237.271	25829.6
237.731	24616.5
238.191	22949.5
238.652	22750.3
239.112	24852.9
239.572	27824.6
240.033	28709.4
240.493	26153.8
240.953	22999.6
241.413	22410
241.873	23752.8
242.333	25406.5
242.793	24334.2
243.253	21984.9
243.712	20784.6
244.172	21257.4
244.632	22708.6
245.092	24867.4
245.551	25210.1
246.011	23960.6
246.47	22429.2
246.93	23227.7
247.389	27182.9
247.848	30942.8
248.308	32032.9
248.767	31270.5
249.226	29710.5
249.685	29225.1
250.144	30326.4
250.603	33396.1
251.062	35611.3
251.521	34827.9
251.98	32367.7
252.439	30101.5
252.897	29322.5
253.356	31200.9
253.815	33698.1
254.273	35287.3
254.732	34932.8
255.19	30704.6
255.649	26503.2
256.107	25258.2
256.566	26110
257.024	28764
257.482	29055.6
257.94	27504.7
258.398	27348.3
258.856	27322
259.315	27549.6
259.772	28448.1
260.23	29044.5
260.688	28325.8
261.146	26247.8
261.604	24270.2
262.062	23879.5
262.519	24924.9
262.977	25941.2
263.434	25137.8
263.892	24380.6
264.349	24629.1
264.807	24980.2
265.264	24310.8
265.721	23605.8
266.179	23443.4
266.636	22289.6
267.093	21044.1
267.55	21064.4
268.007	21915.5
268.464	22537.7
268.921	22134.1
269.378	20966.9
269.835	20239.5
270.291	20445
270.748	20391.9
271.205	20260.7
271.661	19538.8
272.118	18611.6
272.574	18371.1
273.031	18506.1
273.487	18262.1
273.944	17607.7
274.4	17523.5
274.856	17356.1
275.312	16573.9
275.768	16216.6
276.225	16054
276.681	16001.3
277.137	15522.8
277.593	14817.5
278.048	14314.7
278.504	14143.5
278.96	13655.2
279.416	12732.4
279.871	11860.7
280.327	11276.4
280.783	11166.7
281.238	11203
281.694	10794.7
282.149	10398.7
282.604	10296.8
283.06	10180.1
283.515	9652.8
283.97	9438.3
284.425	9172.5
284.88	8828
285.335	8525.1
285.79	7853.6
286.245	7303.3
286.7	7422.7
287.155	7817.8
287.61	7856.6
288.064	7921.8
288.519	8259.9
288.974	8312.4
289.428	8123.7
289.883	8180.3
290.337	8380.1
290.792	8709
291.246	9226.3
291.7	9394.3
292.155	9504.5
292.609	9504.1
293.063	9241.1
293.517	9389.1
293.971	9636.4
294.425	9842
294.879	9961.1
295.333	9980.3
295.787	9733.9
296.241	9469.1
296.694	9650.7
297.148	10054.2
297.602	10313.8
298.055	10292.4
298.509	10026.8
298.962	9455
299.416	9350.9
299.869	9538.9
300.322	9558.9
300.775	9478.3
301.229	9200.1
301.682	9128.9
302.135	8977.1
302.588	8659.3
303.041	8381.3
303.494	8011.1
303.947	7642.9
304.4	7412
304.852	7176
305.305	6837
305.758	6504.4
306.21	6032.2
306.663	5738.8
307.115	5679.8
307.568	5718.9
308.02	5725
308.473	5587.6
308.925	5301.3
309.377	5068.4
309.829	4994.9
310.282	4925.4
310.734	4771.2
311.186	4600.9
311.638	4392.8
312.09	4171.1
312.542	3980
312.993	3766.4
313.445	3603
313.897	3519.8
314.349	3418
314.8	3368.3
315.252	3205.3
315.703	3116.8
316.155	3013.1
316.606	2967.4
317.058	2843
317.509	2880.7
317.96	2817.9
318.411	2650.7
318.863	2595.1
319.314	2506.8
319.765	2412.3
320.216	2276.8
320.667	2135.1
321.117	2059.1
321.568	1995.1
322.019	1940.1
322.47	1882.8
322.921	1812.8
323.371	1747.1
323.822	1628.7
324.272	1500.7
324.723	1440.6
325.173	1338.2
325.623	1259.7
326.074	1193.3
326.524	1134.6
326.974	1319.8
327.424	1900
327.874	2340.8
328.325	1822
328.775	1246
329.224	1167
329.674	1109.2
330.124	1062.1
330.574	1021.9
331.024	936.5
331.473	880.9
331.923	811.9
332.373	753.8
332.822	691.1
333.272	633.6
333.721	603.7
334.17	552.3
334.62	512.6
335.069	479.3
335.518	447.4
335.967	414.3
336.416	399.8
336.865	386.7
337.314	335.7
337.763	312.7
338.212	281.6
338.661	271.6
339.11	238.5
339.558	219.2
340.007	218.2
340.456	216
340.904	219.2
341.353	208.8
341.801	182
342.25	187
342.698	165.5
343.146	156.1
343.595	128.6
344.043	127.3
344.491	120.8
344.939	108.8
345.387	107.9
345.835	98.6
346.283	94.4
346.731	76.4
347.179	78.8
347.626	79.9
348.074	65.6
348.522	60
348.969	64.8
349.417	52.1
349.865	66.5
350.312	47
350.759	41.8
351.207	44.1
351.654	30.9
352.101	38.2
352.548	25.5
352.996	26.3
353.443	30.8
353.89	23.6
354.337	19
354.784	25.6
355.231	14
355.677	24.8
356.124	23
356.571	20.6
357.018	22.2
357.464	19.4
357.911	20.1
358.357	19.7
358.804	25.1
359.25	23.1
359.696	19.9
360.143	9.9
360.589	10.9
361.035	10.4
361.481	17.1
361.927	3.3
362.373	13.6
362.819	13.1
363.265	15.7
363.711	8.3
364.157	5.2
364.603	7.2
365.048	9.4
365.494	15.2
365.94	4.2
366.385	4
366.831	11.9
367.276	6.9
367.722	3.2
368.167	7.1
368.612	3.7
369.057	7
369.503	4.5
369.948	4.2
370.393	12
370.838	1.7
371.283	-2.1
371.728	14.6
372.173	3.6
372.617	10.7
373.062	-3.7
373.507	-1.4
373.951	7.3
374.396	-0.4
374.841	6.8
375.285	5.3
375.729	1.6
376.174	5.9
376.618	6.7
377.062	1.6
377.507	-5.3
377.951	13.7
378.395	-0.2
378.839	-7
379.283	-1.3
379.727	4
380.171	9.5
380.615	2.5
381.059	15
381.502	9.7
381.946	2.3
382.39	0.9
382.833	-1.8
383.277	9.6
383.72	15.2
384.164	8
384.607	7.5
385.05	3.5
385.494	9.7
385.937	1.4
386.38	10.2
386.823	-4.4
387.266	8.5
387.709	0.4
388.152	8.5
388.595	-1.8
389.038	6.2
389.481	-3.1
389.923	3.9
390.366	-2.9
390.809	1.9
391.251	10.1
391.694	1.5
392.136	0.2
392.579	7.7
393.021	4.7
393.463	0.4
393.906	5.5
394.348	1.9
394.79	6.8
395.232	6.8
395.674	6.6
396.116	9.4
396.558	6.5
397	1.1
397.442	5.4
397.884	-4.3
398.325	6
398.767	2.8
399.209	-0.7
399.65	0.2
400.092	5.4
400.533	3.6
400.974	20
401.416	7
401.857	5.7
402.298	10.9
402.74	8
403.181	4.6
403.622	4.3
404.063	13.1
404.504	4.4
404.945	8.8
405.386	4.4
405.826	12.5
406.267	-0.9
406.708	5
407.149	6.2
407.589	4.5
408.03	7.7
408.47	13.7
408.911	4.7
409.351	1.2
409.791	5.1
410.232	10.5
410.672	3.9
411.112	0.4
411.552	1.7
411.992	15
412.432	5.3
412.872	3
413.312	4.7
413.752	4.1
414.192	-9.1
414.632	10.9
415.071	3.5
415.511	0.8
415.951	4.2
416.39	5.3
416.83	4.8
417.269	1.2
417.708	8.2
418.148	1.8
418.587	8.7
419.026	1.8
419.465	1.3
419.904	8.5
420.344	11.1
420.783	9.3
421.221	10.8
421.66	3.4
422.099	6
422.538	10.7
422.977	0.8
423.415	4.4
423.854	9.5
424.293	6.8
424.731	3.9
425.17	6
425.608	1.6
426.046	19.6
426.485	6.2
426.923	-2.7
427.361	1.5
427.799	3.5
428.237	5.1
428.675	12.7
429.113	-1.2
429.551	2.9
429.989	5.4
430.427	6.1
430.865	10.6
431.303	2.6
431.74	4.3
432.178	8.9
432.615	1.4
433.053	10.9
433.49	0.7
433.928	10.1
434.365	1
434.802	0
435.24	1.7
435.677	6.3
436.114	12.4
436.551	8.9
436.988	4.2
437.425	8.2
437.862	3.2
438.299	7.7
438.736	5.7
439.172	-8.1
439.609	-2
440.046	0.5
440.482	-1.1
440.919	3.1
441.355	-2.8
441.792	2.9
442.228	5.6
442.665	5.2
443.101	6.1
443.537	8.3
443.973	5.1
444.409	4.2
444.845	3.6
445.281	-5.4
445.717	6.5
446.153	-3.6
446.589	3.5
447.025	-5.8
447.461	9.7
447.896	2.1
448.332	7.8
448.768	5.4
449.203	9
449.639	8.8
450.074	-2.4
450.509	8.8
450.945	11.4
451.38	5.7
451.815	6.4
452.25	3.9
452.685	1.1
453.12	6.6
453.555	-7.4
453.99	7.8
454.425	0.4
454.86	6.1
455.295	-4.1
455.73	-7.2
456.164	21.6
456.599	10.2
457.033	-0.1
457.468	4.7
457.902	-0.3
458.337	1.9
458.771	-3.3
459.205	5.6
459.64	1.8
460.074	1.5
460.508	-3.4
460.942	2.7
461.376	-6.1
461.81	-4.2
462.244	0
462.678	17.4
463.112	0.8
463.545	-1.8
463.979	2.3
464.413	2.2
464.846	4.6
465.28	9.3
465.713	8.5
466.147	3.1
466.58	7.9
467.014	2.3
467.447	5.6
467.88	8.1
468.313	6.8
468.746	21.7
469.179	1
469.612	9.4
470.045	7.2
470.478	-5.2
470.911	6.5
471.344	3
471.777	2.6
472.209	11.2
472.642	7.7
473.074	5.8
473.507	12.3
473.939	15.9
474.372	10.3
474.804	6.6
475.236	5
475.669	4.6
476.101	11.8
476.533	11.7
476.965	9.1
477.397	3.3
477.829	17.8
478.261	10.8
478.693	7.5
479.125	-3.8
479.557	11
479.988	14.1
480.42	14.2
480.852	15.9
481.283	11.6
481.715	11.4
482.146	13.9
482.577	16.5
483.009	19.4
483.44	14.5
483.871	11.2
484.302	16.1
484.734	8
485.165	19.9
485.596	12.7
486.027	16.3
486.457	16.6
486.888	8.3
487.319	5.6
487.75	-6.3
488.181	12.2
488.611	14.9
489.042	0.3
489.472	13
489.903	7.9
490.333	11.7
490.764	11
491.194	5.6
491.624	9.3
492.054	2.6
492.484	3
492.915	13.8
493.345	3.7
493.775	9.5
494.204	7.7
494.634	2.9
495.064	12
495.494	-0.3
495.924	2.5
496.353	9.5
496.783	7.8
497.212	11.4
497.642	13
498.071	5.6
498.501	2.2
498.93	8
499.359	11.8
499.789	-1.3
500.218	15.8
500.647	4.7
501.076	0.9
501.505	4.5
501.934	6.7
502.363	4
502.792	9.8
503.221	10.2
503.649	5.3
504.078	4.9
504.507	2
504.935	13.3
505.364	-0.9
505.792	-1
506.221	0.9
506.649	0.8
507.077	-1.6
507.506	2.6
507.934	14
508.362	-8.2
508.79	-1.7
509.218	7.3
509.646	-0.9
510.074	14
510.502	14.9
510.93	3.4
511.357	12.2
511.785	3.5
512.213	0.9
512.64	1.4
513.068	11.2
513.496	4.8
513.923	2.1
514.35	3.5
514.778	11.3
515.205	5.9
515.632	4.6
516.059	-4.9
516.486	8.5
516.914	5.4
517.341	12.4
517.768	2.4
518.194	-3.4
518.621	2.4
519.048	0.8
519.475	9.3
519.902	-7
520.328	0.9
520.755	-1.7
521.181	3.9
521.608	6.7
522.034	0.8
522.461	-1.8
522.887	6.6
523.313	0.5
523.739	7.6
524.165	4
524.592	-0.6
525.018	12.7
525.444	3.3
525.869	5.5
526.295	11.2
526.721	6.8
527.147	12.2
527.573	5.2
527.998	4.6
528.424	6.4
528.849	-1.8
529.275	2.8
529.7	-0.3
530.126	3.8
530.551	0
530.976	6.7
531.402	-16.1
531.827	9
532.252	6
532.677	5.5
533.102	-3.9
533.527	4
533.952	1
534.377	-0.9
534.801	5
535.226	-1.6
535.651	12.5
536.076	-5.6
536.5	5.8
536.925	-5.6
537.349	7.3
537.773	-4.7
538.198	0.8
538.622	11.4
539.046	4.9
539.471	6.3
539.895	2.5
540.319	10
540.743	-6.3
541.167	-5.9
541.591	5.3
542.015	11.1
542.438	1.2
542.862	4.1
543.286	8.7
543.71	6.6
544.133	5.2
544.557	9.6
544.98	-0.1
545.404	11
545.827	-0.6
546.25	11.4
546.674	9.4
547.097	6
547.52	7.3
547.943	7.4
548.366	6.7
548.789	-0.2
549.212	9.2
549.635	3.4
550.058	6.4
550.481	6.9
550.903	9
551.326	7.4
551.749	7.2
552.171	17.5
552.594	13.2
553.016	7.6
553.438	6
553.861	6.8
554.283	7.7
554.705	1.7
555.128	-3.1
555.55	5.7
555.972	3.8
556.394	0.4
556.816	9.3
557.238	0
557.659	2.9
558.081	4
558.503	9.5
558.925	10.8
559.346	2.4
559.768	-0.5
560.189	-1.5
560.611	6.6
561.032	2.3
561.454	-3.6
561.875	0.4
562.296	4.3
562.718	7
563.139	6.5
563.56	-2.2
563.981	7.8
564.402	4.2
564.823	7
565.244	0.2
565.664	6.1
566.085	10.9
566.506	-5.1
566.927	-4.7
567.347	1.7
567.768	8.6
568.188	10.3
568.609	6.5
569.029	4.3
569.449	3.9
569.87	8.3
570.29	5.4
570.71	4.4
571.13	-5
571.55	6.3
571.97	4.2
572.39	2.2
572.81	-2.1
573.23	-5.9
573.65	6.7
574.069	5.4
574.489	1.8
574.909	-4.7
575.328	-0.9
575.748	8.6
576.167	8.6
576.587	5.2
577.006	-9.8
577.425	6.7
577.844	-0.2
578.264	-4.5
578.683	5
579.102	-3.6
579.521	-2.3
579.94	6.4
580.359	8.4
580.778	-4.1
581.196	-4
581.615	-4.7
582.034	7.3
582.452	2.7
582.871	3.4
583.29	-0.1
583.708	5.2
584.126	4.2
584.545	3
584.963	-1.4
585.381	8.9
585.8	-4.4
586.218	5.5
586.636	-2.9
587.054	-8
587.472	-2.4
587.89	-0.6
588.308	3
588.725	0.6
589.143	2.5
589.561	-3.9
589.979	-9
590.396	-3.7
590.814	1.8
591.231	-1
591.649	10.6
592.066	-6.1
592.483	-15.6
592.901	-5.7
593.318	-3
593.735	2.1
594.152	7.3
594.569	-1.7
594.986	-1.9
595.403	-2.4
595.82	-5.8
596.237	-3.5
596.654	5.6
597.07	0.7
597.487	-3.1
597.904	0.3
598.32	5
598.737	0.9
599.153	-6.4
599.57	3.5
599.986	-6
600.402	-6.8
600.818	2.1
601.235	-4.4
601.651	-11
602.067	4.3
602.483	-4.8
602.899	1.4
603.315	-10
603.73	-4.7
604.146	-0.9
604.562	2.8
604.978	-3.5
605.393	-9.3
605.809	-8.2
606.224	-3.4
606.64	-15.1
607.055	2
607.471	1.7
607.886	-3.8
608.301	-4.9
608.716	4.1
609.131	1.8
609.547	-2.1
609.962	4.3
610.377	0.4
610.791	1.2
611.206	-10.1
611.621	2
612.036	-4.3
612.451	7.4
612.865	-6.9
613.28	5.3
613.694	-0.9
614.109	-6.9
614.523	4.2
614.938	2.9
615.352	-0.8
615.766	5.4
616.18	15.4
616.595	6.4
617.009	-0.5
617.423	-0.4
617.837	6.9
618.251	3.9
618.664	8.3
619.078	14.3
619.492	13.5
619.906	20.9
620.319	9.7
620.733	7.4
621.146	9.4
621.56	16.6
621.973	15
622.387	11.6
622.8	13.7
623.213	16
623.627	15.9
624.04	26
624.453	21.8
624.866	11.4
625.279	29.4
625.692	31.5
626.105	31
626.518	34.6
626.93	35.1
627.343	41.2
627.756	45.6
628.168	37.4
628.581	44.9
628.993	33.6
629.406	58.9
629.818	42.8
630.231	58.9
630.643	59.4
631.055	50.6
631.467	67.7
631.879	79.7
632.291	70.6
632.703	80.6
633.115	83.7
633.527	85
633.939	95.6
634.351	86.6
634.763	89.3
635.174	110.5
635.586	110.2
635.997	110.1
636.409	118.3
636.82	117.7
637.232	118.5
637.643	117.7
638.054	120
638.466	139.5
638.877	111.5
639.288	131.5
639.699	131.3
640.11	126.7
640.521	140
640.932	128.2
641.343	118
641.753	135.6
642.164	119.8
642.575	122.8
642.986	121.1
643.396	135
643.807	141.2
644.217	144.7
644.627	133
645.038	139.9
645.448	153.1
645.858	153.1
646.269	146.4
646.679	157.8
647.089	155.3
647.499	168.1
647.909	164.3
648.319	154
648.728	160.3
649.138	157.7
649.548	163.1
649.958	168.9
650.367	160.6
650.777	165.3
651.186	166.7
651.596	161.5
652.005	157
652.415	148.2
652.824	156.1
653.233	134.7
653.642	147.4
654.052	134.5
654.461	134.5
654.87	126.8
655.279	130.2
655.688	113.8
656.096	121.4
656.505	118.9
656.914	121.3
657.323	120.7
657.731	113.1
658.14	118.6
658.548	109.6
658.957	105.6
659.365	100.3
659.774	100
660.182	94.4
660.59	95.9
660.998	96.7
661.407	98.9
661.815	93
662.223	92.7
662.631	92.3
663.039	86.6
663.446	90.1
663.854	85.4
664.262	89.5
664.67	73.3
665.077	70.1
665.485	72.7
665.892	74.7
666.3	54.3
666.707	49.2
667.115	63.6
667.522	48.6
667.929	45.3
668.337	43.8
668.744	47.7
669.151	31.7
669.558	49
669.965	28.7
670.372	35
670.779	34.8
671.185	24.5
671.592	30.3
671.999	16.9
672.405	17.9
672.812	16.8
673.219	21.7
673.625	24.9
674.032	30
674.438	16.6
674.844	16.2
675.25	18.2
675.657	12.6
676.063	19
676.469	17.2
676.875	11.6
677.281	11.4
677.687	7.5
678.093	13.5
678.499	5.1
678.904	-1.6
679.31	10.2
679.716	5.1
680.121	-5.2
680.527	-3.2
680.932	7.2
681.338	-0.5
681.743	9.1
682.148	-9.2
682.554	-1.9
682.959	2.6
683.364	13.7
683.769	3.4
684.174	-2.3
684.579	6.4
684.984	3
685.389	11.5
685.794	-0.7
686.199	6.9
686.603	7.1
687.008	5.6
687.413	-0.5
687.817	-1
688.222	6.5
688.626	6.2
689.03	4.3
689.435	-2.6
689.839	14.8
690.243	-2.2
690.647	1
691.051	6.4
691.456	-6.5
691.859	7
692.263	-0.9
692.667	6
693.071	0.5
693.475	0.2
693.879	-1.3
694.282	5.8
694.686	1.6
695.089	-2.6
695.493	-0.4
695.896	3.2
696.3	-7.8
696.703	5.5
697.106	4.1
697.509	1
697.913	8.2
698.316	5.8
698.719	0
699.122	-7.2
699.525	-13.3
699.928	4.7
700.33	2.8
700.733	0.9
701.136	-2.3
701.539	2.4
701.941	-8.2
702.344	-0.7
702.746	2.7
703.149	2.5
703.551	-8.9
703.953	6.9
704.356	9.1
704.758	-9.1
705.16	-0.1
705.562	11.9
705.964	0.3
706.366	10.6
706.768	-0.3
707.17	2
707.572	5.1
707.973	-6.3
708.375	4.4
708.777	0.7
709.178	4.7
709.58	-1.9
709.981	-0.7
710.383	0
710.784	7.8
711.186	-0.2
711.587	-0.9
711.988	2.6
712.389	-0.7
712.79	13.2
713.191	4.2
713.592	1.7
713.993	0.4
714.394	4.7
714.795	-0.8
715.196	7
715.596	-5.9
715.997	-3.1
716.398	-1.5
716.798	5.7
717.199	-10.9
717.599	-2.3
718	-3.5
718.4	3.7
718.8	-8
719.2	-1.7
719.6	5.9
720.001	-3.4
720.401	-6.2
720.801	1
721.201	2.1
721.6	-2.1
722	7.3
722.4	-4.6
722.8	7.8
723.199	1.1
723.599	0.5
723.998	-2
724.398	5.3
724.797	0.2
725.197	-9.2
725.596	-8.8
725.995	-4.8
726.394	8.2
726.794	-3.4
727.193	1.2
727.592	8.3
727.991	0.9
728.39	2.5
728.789	7.3
729.187	-0.8
729.586	-1.6
729.985	3.8
730.383	3.4
730.782	6.4
731.181	7.6
731.579	-2.2
731.977	-2.4
732.376	-3.3
732.774	2.5
733.172	-11.1
733.571	3.8
733.969	-7.7
734.367	2.6
734.765	2
735.163	0.9
735.561	12.4
735.959	12.6
736.356	5.3
736.754	3.1
737.152	2.2
737.55	5.5
737.947	7.9
738.345	11.6
738.742	12.7
739.14	3
739.537	-0.3
739.934	9.7
740.331	5.9
740.729	5.8
741.126	17.2
741.523	14.7
741.92	13.5
742.317	6.2
742.714	16
743.111	3.4
743.507	8.2
743.904	13.2
744.301	16
744.697	10.1
745.094	11
745.491	6.1
745.887	15.3
746.283	17.4
746.68	12.5
747.076	20.6
747.472	24.6
747.869	21
748.265	23.2
748.661	22.1
749.057	27.8
749.453	19.6
749.849	32.9
750.244	16.7
750.64	29.3
751.036	29.4
751.432	19.1
751.827	28.2
752.223	34.8
752.618	24.8
753.014	18.4
753.409	32.2
753.805	27.9
754.2	19.1
754.595	21.6
754.99	34.9
755.385	32.2
755.78	24.2
756.175	26.4
756.57	25.1
756.965	28.1
757.36	18.9
757.755	31.2
758.15	29
758.544	23.1
758.939	49.1
759.334	47.6
759.728	47
760.122	58.2
760.517	56.4
760.911	55.7
761.306	56
761.7	58.4
762.094	44.1
762.488	50.4
762.882	50
763.276	42.9
763.67	44.3
764.064	52.4
764.458	54.2
764.852	51.9
765.245	50.6
765.639	63.3
766.033	68.5
766.426	82.7
766.82	70.4
767.213	70.3
767.606	68.2
768	73.8
768.393	67.7
768.786	66.2
769.179	78.2
769.572	69.7
769.966	65
770.358	64.8
770.751	60.6
771.144	54.9
771.537	57.1
771.93	54.4
772.323	45.2
772.715	52.5
773.108	42.8
773.5	47.8
773.893	42.3
774.285	44.3
774.678	54.1
775.07	48.1
775.462	40.8
775.854	30.4
776.247	39
776.639	44.3
777.031	30.5
777.423	33.6
777.815	36
778.207	43.8
778.598	37.5
778.99	25.4
779.382	47.2
779.773	63.6
780.165	66.7
780.557	89.5
780.948	81.6
781.339	91.7
781.731	95.8
782.122	98.7
782.513	94.4
782.905	102.6
783.296	93.8
783.687	99.9
784.078	83.1
784.469	83.1
784.86	75.9
785.251	78.2
785.641	76.7
786.032	74.6
786.423	77.1
786.813	86
787.204	63.2
787.594	81.2
787.985	73.9
788.375	66.7
788.766	66.1
789.156	45.5
789.546	51
789.936	42.2
790.326	43
790.717	38.1
791.107	41.8
791.497	36.5
791.886	30.9
792.276	41.1
792.666	21.3
793.056	23.6
793.445	20.3
793.835	18.3
794.225	19.1
794.614	29.6
795.004	8.5
795.393	13.9
795.782	16.1
796.172	18.4
796.561	44.5
796.95	24.7
797.339	17.6
797.728	32.9
798.117	14.3
798.506	18.7
798.895	21.9
799.284	17.5
799.673	23
800.061	12.3
800.45	21.1
800.839	14.5
801.227	3.8
801.616	11.5
802.004	6.4
802.392	11.9
802.781	23.7
803.169	5.1
803.557	7.8
803.945	8.8
804.333	0.3
804.721	8.3
805.109	7.1
805.497	7.8
805.885	-0.3
806.273	6.3
806.661	7
807.048	12.4
807.436	4.7
807.824	5.3
808.211	3.8
808.599	-16.5
808.986	6.2
809.373	-2.7
809.761	7.4
810.148	2.5
810.535	7.8
810.922	-0.8
811.309	6.4
811.696	5.6
812.083	8.1
812.47	8.2
812.857	8.1
813.244	-6.5
813.631	-3
814.017	2.5
814.404	9
814.791	3.1
815.177	0.3
815.564	7.7
815.95	8.5
816.336	1.3
816.723	-3
817.109	1.1
817.495	5.6
817.881	1.5
818.267	9
818.653	5.9
819.039	4.3
819.425	1.9
819.811	-0.4
820.197	-0.7
820.582	-5.8
820.968	2.1
821.354	-2.5
821.739	-6.5
822.125	-5.5
822.51	0.4
822.895	-4.6
823.281	-4.1
823.666	1.6
824.051	0.6
824.436	0.8
824.822	-0.7
825.207	-1.6
825.592	-3.8
825.976	10.8
826.361	-5.2
826.746	8.2
827.131	-8
827.516	3.3
827.9	-1.1
828.285	-2.1
828.669	-4.5
829.054	2.8
829.438	9.3
829.823	4.3
830.207	-2.9
830.591	12.2
830.975	-3.1
831.36	-1.5
831.744	6
832.128	-7.7
832.512	1.8
832.895	14.1
833.279	-0.4
833.663	10.4
834.047	-0.8
834.431	1.3
834.814	2.5
835.198	-2
835.581	-5.8
835.965	-3.4
836.348	1.3
836.731	-2.1
837.115	12.9
837.498	-3.3
837.881	1.9
838.264	-3.4
838.647	-4.5
839.03	3.8
839.413	0.5
839.796	3.3
840.179	-7.3
840.562	-1.6
840.944	-3.4
841.327	-5
841.71	5.3
842.092	2.2
842.475	-3.6
842.857	5.8
843.24	3
843.622	0.1
844.004	3.4
844.386	1.5
844.769	3.2
845.151	0
845.533	-0.7
845.915	-0.6
846.297	11.9
846.678	-5.5
847.06	-7.8
847.442	5.9
847.824	8.7
848.205	8
848.587	-10.4
848.968	8.5
849.35	-10.9
849.731	-1.8
850.113	-5.7
850.494	-0.6
850.875	-7.9
851.256	2.1
851.638	8.8
852.019	5
852.4	-2.1
852.781	3.9
853.161	2.6
853.542	-0.7
853.923	-4
854.304	-3.3
854.685	-3.3
855.065	11.6
855.446	-0.2
855.826	9.1
856.207	0.8
856.587	1.6
856.967	-2.7
857.348	-0.3
857.728	7.1
858.108	1.9
858.488	-4.7
858.868	-5.1
859.248	1.5
859.628	2.6
860.008	-5.4
860.388	3.5
860.768	-3.5
861.147	-2.3
861.527	2.2
861.907	4.5
862.286	5.3
862.666	6.9
863.045	4
863.424	-2.8
863.804	-9.2
864.183	-1.4
864.562	-4.2
864.941	-4.6
865.32	-2.6
865.699	2.7
866.078	-0.5
866.457	8.5
866.836	-5.9
867.215	-4.3
867.594	6.8
867.972	0
868.351	-3.4
868.729	-0.3
869.108	4.4
869.486	4.1
869.865	-3
870.243	6.3
870.621	-3.2
871	5.9
871.378	-1
871.756	-0.7
872.134	11.7
872.512	8.9
872.89	3.7
873.268	9
873.646	2.1
874.023	-7.2
874.401	-5
874.779	3.4
875.156	-3.8
875.534	0.5
875.911	-0.5
876.289	-9.6
876.666	-20.3
877.043	7.8
877.421	-3.5
877.798	-2.8
878.175	3.7
878.552	-5.5
878.929	-2.1
879.306	-2.6
879.683	8.2
880.06	-0.6
880.437	1
880.813	5
881.19	-0.6
881.567	7.4
881.943	-2.3
882.32	0.4
882.696	1.9
883.073	9.3
883.449	-2.9
883.825	5
884.202	1.9
884.578	2.2
884.954	7.3
885.33	-2.9
885.706	3.4
886.082	-11.7
886.458	2.7
886.834	3.7
887.209	2.6
887.585	5.5
887.961	-5.8
888.336	9.3
888.712	5.1
889.087	3
889.463	6.3
889.838	0.8
890.213	-0.1
890.589	2
890.964	-1.4
891.339	0
891.714	1.4
892.089	-0.9
892.464	1.4
892.839	-2.7
893.214	6
893.589	-4.8
893.963	2.9
894.338	-1.9
894.713	-3.4
895.087	10.1
895.462	2.6
895.836	-6.8
896.211	-0.3
896.585	-1.3
896.959	2.7
897.334	6.5
897.708	13.6
898.082	6.6
898.456	-5.8
898.83	3.5
899.204	9.4
899.578	0.5
899.952	1.5
900.325	2.9
900.699	-10
901.073	-1.1
901.446	-1.3
901.82	-6.3
902.193	2.8
902.567	5.6
902.94	7.3
903.313	10.7
903.687	-2.3
904.06	0.6
904.433	11.1
904.806	9
905.179	4
905.552	7.6
905.925	7.4
906.298	6.4
906.671	6.1
907.043	8.7
907.416	2.1
907.789	0.6
908.161	3
908.534	5.4
908.906	3.8
909.279	4.2
909.651	6.2
910.023	-3.8
910.396	0.1
910.768	14.9
911.14	-1.2
911.512	6.8
911.884	6.6
912.256	9.6
912.628	6.2
912.999	-0.9
913.371	-4.7
913.743	13.3
914.115	10.3
914.486	15.4
914.858	6.5
915.229	6.7
915.601	3.7
915.972	-1.7
916.343	9.8
916.715	7.2
917.086	0.4
917.457	12.9
917.828	1.3
918.199	18.6
918.57	4.3
918.941	-2.9
919.312	9.4
919.682	4.5
920.053	5
920.424	-0.4
920.794	4.7
921.165	4.6
921.536	6.9
921.906	12
922.276	5.7
922.647	4.9
923.017	5.6
923.387	4.2
923.757	6.4
924.127	8.9
924.497	13.3
924.867	0.5
925.237	12.7
925.607	3.4
925.977	6.4
926.347	7.6
926.716	5.6
927.086	8.1
927.456	-5.6
927.825	-0.4
928.195	-1.3
928.564	8.4
928.933	3.2
929.303	9.4
929.672	5.1
930.041	3.6
930.41	6.8
930.779	5.2
931.148	8.9
931.517	1.6
931.886	-0.5
932.255	3.1
932.624	10.9
932.993	6.1
933.361	5.9
933.73	8.3
934.098	7.1
934.467	3.4
934.835	5.6
935.204	2.2
935.572	14
935.94	8.9
936.308	16.7
936.677	7.9
937.045	0.6
937.413	10.7
937.781	17.6
938.149	12.2
938.516	11.3
938.884	18.5
939.252	4.7
939.62	5.7
939.987	14.3
940.355	8.3
940.722	13.6
941.09	8
941.457	12.2
941.825	11.5
942.192	8.1
942.559	11.7
942.926	1.6
943.293	7.1
943.66	8.7
944.027	10.1
944.394	4.3
944.761	9.3
945.128	10
945.495	10
945.861	2.3
946.228	14.4
946.595	6.1
946.961	13.1
947.328	6.1
947.694	6.4
948.06	10.2
948.427	6.9
948.793	12.7
949.159	-0.6
949.525	2.5
949.891	9.2
950.257	0.6
950.623	5.8
950.989	3.8
951.355	4.4
951.721	11
952.087	3.7
952.452	12.1
952.818	-0.5
953.183	11.4
953.549	4.9
953.914	14.9
954.28	1.1
954.645	0.6
955.01	10.4
955.375	-1.8
955.741	-1.7
956.106	1.1
956.471	-0.8
956.836	-0.3
957.201	3.8
957.566	5.9
957.93	3
958.295	6.5
958.66	2.9
959.024	21.8
959.389	4.3
959.753	6
960.118	-3.9
960.482	-3.2
960.847	3.1
961.211	2.5
961.575	4.6
961.939	9.8
962.303	4.2
962.667	5.4
963.031	0.9
963.395	9.1
963.759	8.2
964.123	-2
964.487	-1.5
964.851	-0.3
965.214	2.2
965.578	1.8
965.941	3.7
966.305	0.5
966.668	1.4
967.032	1.4
967.395	-2.9
967.758	1.1
968.121	3.7
968.484	12.6
968.847	3.3
969.21	3.8
969.573	0.3
969.936	-6.9
970.299	-9.3
970.662	12.6
971.025	-0.6
971.387	9.4
971.75	13.5
972.112	5.4
972.475	3.1
972.837	4.4
973.2	8.6
973.562	8.9
973.924	1.7
974.286	4.3
974.649	-4.9
975.011	0.9
975.373	9.8
975.735	1.9
976.097	-0.4
976.458	3
976.82	17.5
977.182	-0.1
977.544	-1.6
977.905	-1.5
978.267	6.8
978.628	7.1
978.99	0.4
979.351	2.7
979.712	2.8
980.074	-7.4
980.435	7.3
980.796	5.2
981.157	4.8
981.518	-1
981.879	2.4
982.24	3.5
982.601	7.7
982.962	4.6
983.323	-2.5
983.683	8.4
984.044	2.5
984.404	9.4
984.765	8.3
985.125	6.7
985.486	0.8
985.846	-5.9
986.206	-7.2
986.567	-5.8
986.927	3.1
987.287	4.1
987.647	-2.9
988.007	-4.2
988.367	2.6
988.727	-0.6
989.087	0.3
989.446	5.5
989.806	3
990.166	6
990.525	3.1
990.885	-3.1
991.244	-7.8
991.604	5.5
991.963	-5.8
992.322	2.3
992.682	-1.7
993.041	-2.1
993.4	-4.2
993.759	1.8
994.118	-9.6
994.477	-1.8
994.836	-1.8
995.195	8.6
995.553	0.1
995.912	3.4
996.271	0.7
996.629	2.8
996.988	11.2
997.346	-0.2
997.705	-4.7
998.063	4
998.422	-0.6
998.78	3.6
999.138	-0.1
999.496	0.2
999.854	9
1000.212	-0.2
1000.57	-1.7
1000.928	-1.7
1001.286	-0.7
1001.644	7.9
1002.001	-3.2
1002.359	5.1
1002.717	9.5
1003.074	6.5
1003.432	-3.3
1003.789	-8
1004.147	0.7
1004.504	-0.2
1004.861	5.4
1005.218	-2.1
1005.576	-0.4
1005.933	5.6
1006.29	6.9
1006.647	7.9
1007.004	-0.8
1007.36	-0.3
1007.717	-1.7
1008.074	15.9
1008.431	0.1
1008.787	-3.8
1009.144	-0.4
1009.5	-5.5
1009.857	1.4
1010.213	1.9
1010.569	4.7
1010.926	6.3
1011.282	8.9
1011.638	2.9
1011.994	-2.7
1012.35	11.5
1012.706	2.6
1013.062	3.7
1013.418	9.9
1013.774	2.1
1014.13	2.6
1014.485	0.1
1014.841	1.1
1015.197	4
1015.552	-1.4
1015.907	-4.5
1016.263	2.4
1016.618	-2.6
1016.974	7.5
1017.329	6.5
1017.684	-0.4
1018.039	-3.7
1018.394	0.4
1018.749	-16.3
1019.104	-9.1
1019.459	2.5
1019.814	2.7
1020.168	-5.1
1020.523	-0.1
1020.878	3.5
1021.232	-8.7
1021.587	6.4
1021.941	-7.2
1022.296	-2.8
1022.65	-4.2
1023.004	3.1
1023.359	-1.9
1023.713	3
1024.067	-5.8
1024.421	1.7
1024.775	-2.5
1025.129	3.4
1025.483	0.4
1025.837	-0.8
1026.19	2
1026.544	-4.1
1026.898	-0.1
1027.251	5.3
1027.605	8.2
1027.958	-8.6
1028.312	-2.1
1028.665	2.4
1029.018	-3.7
1029.372	1.1
1029.725	8.1
1030.078	4.7
1030.431	6
1030.784	2.9
1031.137	-1
1031.49	-1.9
1031.843	6
1032.195	2.2
1032.548	-1.5
1032.901	-3.8
1033.253	4.9
1033.606	6.7
1033.958	10.6
1034.311	-4.1
1034.663	5
1035.016	-8.1
1035.368	0.4
1035.72	0.5
1036.072	-0.8
1036.424	8.6
1036.776	9.3
1037.128	0.4
1037.48	-2.5
