Data from 0.35bar_Subt2__0__18-03-48-465.txt Node

Date: Thu Jan 06 18:03:48 CET 2022
User: fsatto
Spectrometer: OFX01956
Trigger mode: 0
Integration Time (sec): 2.000000E-3
Scans to average: 10
Nonlinearity correction enabled: false
Boxcar width: 0
Storing dark spectrum: false
XAxis mode: Wavelengths
Number of Pixels in Spectrum: 2136
>>>>>Begin Spectral Data<<<<<
158.236	3.8
158.705	-4.1
159.174	1
159.643	3.2
160.112	8.5
160.582	2.9
161.051	10.3
161.52	2.6
161.988	1.2
162.457	11.5
162.926	2.2
163.395	8.2
163.864	-5.1
164.332	3.6
164.801	-4.6
165.269	2.4
165.738	-8.1
166.206	0.3
166.675	8.9
167.143	2
167.612	0.8
168.08	6.9
168.548	-0.3
169.016	0.2
169.484	-3.9
169.952	11.4
170.42	-0.4
170.888	4.6
171.356	0.4
171.824	2.9
172.292	-2.1
172.759	-2.5
173.227	9.3
173.695	0.5
174.162	-0.3
174.63	2
175.097	0.9
175.565	-11.1
176.032	0.4
176.499	-5
176.967	7.1
177.434	4
177.901	5.6
178.368	8.9
178.835	6.7
179.302	10.1
179.769	3.4
180.236	4
180.703	-4.2
181.17	6
181.637	1.6
182.103	-1.6
182.57	0.3
183.036	7.1
183.503	3.1
183.97	5
184.436	2
184.902	5.5
185.369	-6.2
185.835	3
186.301	6
186.767	-0.8
187.234	1.9
187.7	2.5
188.166	6.4
188.632	-2.4
189.098	7.8
189.563	-3.9
190.029	6.9
190.495	7.7
190.961	8.9
191.426	-0.8
191.892	7.7
192.358	3.2
192.823	-0.3
193.289	6.5
193.754	2.9
194.219	5.7
194.685	8.8
195.15	4
195.615	-1.7
196.08	0.4
196.545	5.6
197.01	11.8
197.475	4.3
197.94	-7
198.405	11
198.87	-7.3
199.335	1.9
199.8	1.6
200.264	74
200.729	71.4
201.193	67.1
201.658	70.7
202.122	84.5
202.587	77.8
203.051	64
203.516	89.1
203.98	79.7
204.444	94.1
204.908	78.6
205.372	104.6
205.836	108.8
206.3	108.2
206.764	103.4
207.228	97.3
207.692	110.6
208.156	123.4
208.62	128.7
209.083	136
209.547	137.2
210.011	176.1
210.474	208
210.938	236.4
211.401	265.4
211.864	315.4
212.328	366.9
212.791	444.1
213.254	569.2
213.717	656.1
214.181	759.4
214.644	892.4
215.107	967.2
215.57	1092.9
216.033	1280.7
216.495	1525.3
216.958	1776
217.421	1839.7
217.884	1941.8
218.346	2186.8
218.809	2450.6
219.272	2813.6
219.734	3103.6
220.196	3391.4
220.659	3697.4
221.121	4068.8
221.584	4562.7
222.046	5243.3
222.508	5762.9
222.97	6175.1
223.432	6524.3
223.894	7145.6
224.356	7893.2
224.818	8552
225.28	9268.5
225.742	10046
226.204	11249.5
226.665	12083.1
227.127	12634.3
227.589	13490.5
228.05	14581.3
228.512	15147.3
228.973	15104.7
229.435	14080.4
229.896	13230.9
230.357	14031.4
230.818	15603.5
231.28	16418.6
231.741	16148.6
232.202	15008.5
232.663	13780.1
233.124	14422
233.585	16687.9
234.046	18624.7
234.507	18292.4
234.967	16244.4
235.428	15053
235.889	15754.1
236.349	18287
236.81	21294
237.271	22347.6
237.731	21034.1
238.191	19382.8
238.652	19167.9
239.112	21064.7
239.572	23629.1
240.033	24249.6
240.493	21694.2
240.953	18987.7
241.413	18384.6
241.873	19568.7
242.333	21103.9
242.793	20182.9
243.253	18152.2
243.712	17010.1
244.172	17302.1
244.632	18973.5
245.092	21118.1
245.551	21755.1
246.011	20434.8
246.47	18841.4
246.93	19564.8
247.389	23063.4
247.848	26995
248.308	28421.1
248.767	27941.4
249.226	26123.6
249.685	24859.4
250.144	25302.1
250.603	28289.4
251.062	30853.6
251.521	31077.6
251.98	29336.1
252.439	27194.7
252.897	26053
253.356	27325.6
253.815	29639.2
254.273	31729.4
254.732	32205.9
255.19	28250.3
255.649	24024.9
256.107	22380.1
256.566	22865.9
257.024	25479.2
257.482	26463.5
257.94	25436.2
258.398	25401.8
258.856	24746.7
259.315	24513.1
259.772	25187.1
260.23	26110.7
260.688	25819.1
261.146	24075.5
261.604	22038.2
262.062	21444.6
262.519	22198.3
262.977	23475.1
263.434	23336.9
263.892	23090.7
264.349	23576
264.807	23925.9
265.264	23322
265.721	22691.9
266.179	22816.8
266.636	21892.8
267.093	20789.8
267.55	20956.2
268.007	21945.1
268.464	22666.9
268.921	22370.9
269.378	21267.9
269.835	20794.6
270.291	21012.9
270.748	20930.1
271.205	20721.1
271.661	19890.1
272.118	19087.9
272.574	18837.7
273.031	19082.4
273.487	18917.4
273.944	18165.7
274.4	17981.6
274.856	17880.6
275.312	17131.1
275.768	17022
276.225	16877.9
276.681	16832
277.137	16225.9
277.593	15564.7
278.048	15263.6
278.504	15211
278.96	14734.6
279.416	13902.2
279.871	12959.8
280.327	12355.6
280.783	12301.8
281.238	12310.2
281.694	11943
282.149	11565.1
282.604	11409.8
283.06	11260.2
283.515	10786.2
283.97	10568.9
284.425	10296.7
284.88	9864.6
285.335	9582.7
285.79	8838.4
286.245	8163.4
286.7	8307.1
287.155	8786.8
287.61	8841.4
288.064	8893
288.519	9326.4
288.974	9371.2
289.428	9153.3
289.883	9214.2
290.337	9415.7
290.792	9865.8
291.246	10460.3
291.7	10695.7
292.155	10827.8
292.609	10796
293.063	10655.4
293.517	10707.5
293.971	10961.2
294.425	11283.6
294.879	11534.6
295.333	11513.1
295.787	11296.7
296.241	11016.1
296.694	11130.7
297.148	11823.2
297.602	12131.7
298.055	12226.9
298.509	11971.3
298.962	11265.2
299.416	11205.2
299.869	11325.4
300.322	11364.4
300.775	11356.1
301.229	11094.7
301.682	11050.5
302.135	10848.4
302.588	10497.4
303.041	10167
303.494	9698.5
303.947	9191.2
304.4	8930.5
304.852	8675.6
305.305	8354.2
305.758	7924.9
306.21	7356.6
306.663	7037.6
307.115	6884.4
307.568	7047.5
308.02	7091.9
308.473	6979.4
308.925	6585.3
309.377	6309.2
309.829	6137.8
310.282	6091.5
310.734	5982.2
311.186	5696.6
311.638	5469.9
312.09	5209.6
312.542	5006.2
312.993	4680.9
313.445	4528.7
313.897	4440.7
314.349	4285.2
314.8	4208
315.252	4037.5
315.703	3957
316.155	3826.1
316.606	3761.9
317.058	3618
317.509	3630.4
317.96	3513.6
318.411	3341.9
318.863	3296.3
319.314	3152.8
319.765	3008.6
320.216	2891.6
320.667	2719.2
321.117	2619.3
321.568	2543.4
322.019	2452.4
322.47	2373.1
322.921	2298.1
323.371	2216.5
323.822	2061.7
324.272	1896.3
324.723	1782
325.173	1681
325.623	1572.4
326.074	1481
326.524	1424.7
326.974	1659.8
327.424	2391.1
327.874	2949
328.325	2298.7
328.775	1588.6
329.224	1485
329.674	1404.7
330.124	1348.4
330.574	1300.1
331.024	1198.1
331.473	1148
331.923	1045.8
332.373	952
332.822	867.2
333.272	801.1
333.721	758.1
334.17	710.7
334.62	639
335.069	597.1
335.518	560
335.967	534.3
336.416	504.9
336.865	472.7
337.314	442.8
337.763	408.1
338.212	369.4
338.661	330.4
339.11	308.4
339.558	287
340.007	290.9
340.456	286.2
340.904	286.7
341.353	260
341.801	237.5
342.25	241.6
342.698	216.9
343.146	201.3
343.595	175
344.043	155.1
344.491	152.9
344.939	143.7
345.387	134.8
345.835	131.8
346.283	116.1
346.731	107.4
347.179	110.1
347.626	97
348.074	90.9
348.522	83.7
348.969	73.9
349.417	66.7
349.865	81.2
350.312	71.3
350.759	58
351.207	56.7
351.654	49.9
352.101	48.9
352.548	49.2
352.996	36.4
353.443	44.1
353.89	41.4
354.337	40
354.784	39.7
355.231	26.2
355.677	25.6
356.124	28.5
356.571	28.5
357.018	32.1
357.464	27.1
357.911	20.1
358.357	20.5
358.804	31.9
359.25	19.9
359.696	21.1
360.143	19.3
360.589	14.8
361.035	22.6
361.481	17.1
361.927	12.3
362.373	17.1
362.819	19.9
363.265	15.3
363.711	19.8
364.157	14.5
364.603	12.4
365.048	20.1
365.494	19.6
365.94	8.8
366.385	9.5
366.831	17
367.276	14.4
367.722	10.5
368.167	16
368.612	11
369.057	20.7
369.503	12.3
369.948	5.6
370.393	13.5
370.838	8.1
371.283	11.1
371.728	12.1
372.173	7.6
372.617	20.5
373.062	12
373.507	6.5
373.951	16.3
374.396	10.4
374.841	7
375.285	20.3
375.729	4.1
376.174	13.3
376.618	13.4
377.062	3.9
377.507	7.1
377.951	17.3
378.395	4.3
378.839	7.5
379.283	6.8
379.727	11.1
380.171	13.8
380.615	13.2
381.059	8
381.502	8.2
381.946	11.4
382.39	13.2
382.833	8.8
383.277	13.7
383.72	16.3
384.164	22.5
384.607	12.9
385.05	8.5
385.494	14
385.937	10.5
386.38	9.5
386.823	-1.2
387.266	12.8
387.709	8.7
388.152	14.5
388.595	6.8
389.038	2.5
389.481	1.1
389.923	5.9
390.366	1
390.809	6.6
391.251	16.2
391.694	5.3
392.136	2.7
392.579	16.3
393.021	6.5
393.463	10.8
393.906	15.3
394.348	13.7
394.79	12.2
395.232	5.7
395.674	14.4
396.116	13.5
396.558	10.3
397	7.5
397.442	3.4
397.884	14.8
398.325	11.1
398.767	5.7
399.209	5.4
399.65	6.8
400.092	4.6
400.533	9.4
400.974	19.5
401.416	14.3
401.857	4.3
402.298	11.9
402.74	12.3
403.181	11.1
403.622	9.3
404.063	11
404.504	12.9
404.945	7.2
405.386	-0.8
405.826	15.4
406.267	8
406.708	10.7
407.149	16.9
407.589	6
408.03	13.3
408.47	14.3
408.911	7.7
409.351	6.4
409.791	12.9
410.232	4.9
410.672	14.9
411.112	5.5
411.552	4.6
411.992	21.5
412.432	8.2
412.872	8.1
413.312	12
413.752	13.7
414.192	0.1
414.632	11.3
415.071	14
415.511	3.7
415.951	8.1
416.39	9
416.83	3.8
417.269	4.7
417.708	3.3
418.148	6.5
418.587	9.9
419.026	3
419.465	9.5
419.904	16.2
420.344	18.6
420.783	9.1
421.221	10.7
421.66	5.6
422.099	3.7
422.538	10.1
422.977	8.6
423.415	7.4
423.854	7.1
424.293	13.6
424.731	8.2
425.17	11.6
425.608	1.5
426.046	27.2
426.485	9.5
426.923	11.4
427.361	9.7
427.799	7.8
428.237	7
428.675	18
429.113	-1
429.551	8.8
429.989	7.4
430.427	11.1
430.865	17.9
431.303	10.5
431.74	17.8
432.178	17.5
432.615	4.3
433.053	17
433.49	6.9
433.928	8.7
434.365	6.4
434.802	5.9
435.24	9
435.677	15.6
436.114	16.3
436.551	2.6
436.988	7.7
437.425	9.2
437.862	8.6
438.299	19.5
438.736	11.9
439.172	-1.6
439.609	5.6
440.046	0.3
440.482	7.8
440.919	2.6
441.355	5.1
441.792	10.9
442.228	7.1
442.665	14.7
443.101	9.6
443.537	6.7
443.973	9.7
444.409	6.9
444.845	1.3
445.281	1
445.717	12
446.153	7.2
446.589	6.9
447.025	4.9
447.461	10.3
447.896	3.9
448.332	8.3
448.768	8.3
449.203	10.8
449.639	13.1
450.074	9.2
450.509	6.5
450.945	11.4
451.38	11.5
451.815	20.6
452.25	10
452.685	7.4
453.12	15.2
453.555	-1.8
453.99	2.7
454.425	13.2
454.86	4.4
455.295	-1
455.73	5.5
456.164	16.7
456.599	18.5
457.033	9.4
457.468	10.1
457.902	8.2
458.337	3.6
458.771	3.8
459.205	5.1
459.64	12.6
460.074	9.4
460.508	4.4
460.942	3.3
461.376	-7.1
461.81	5.9
462.244	4.4
462.678	12.1
463.112	2
463.545	2.2
463.979	8.7
464.413	11.1
464.846	3.5
465.28	17.9
465.713	15
466.147	10.5
466.58	9.2
467.014	23.2
467.447	6.7
467.88	20.2
468.313	13.4
468.746	17.3
469.179	14.8
469.612	13.3
470.045	8.7
470.478	3.6
470.911	5.7
471.344	11.6
471.777	11.7
472.209	12.4
472.642	15.6
473.074	10
473.507	18.5
473.939	19.9
474.372	17.4
474.804	16.7
475.236	14.1
475.669	9.7
476.101	18.4
476.533	14.7
476.965	22.7
477.397	6.9
477.829	22.7
478.261	20.5
478.693	18.3
479.125	10.3
479.557	19.9
479.988	29.5
480.42	23.2
480.852	23.9
481.283	22.1
481.715	11.4
482.146	20.5
482.577	13.4
483.009	26.9
483.44	24.1
483.871	24.1
484.302	15.2
484.734	18.2
485.165	17.8
485.596	15.9
486.027	22.7
486.457	14.9
486.888	19.7
487.319	8.7
487.75	6.2
488.181	15.3
488.611	12.5
489.042	11.3
489.472	17.4
489.903	13.4
490.333	15.1
490.764	10.8
491.194	17.6
491.624	13.1
492.054	12.7
492.484	10.2
492.915	14.4
493.345	6.7
493.775	2
494.204	15.7
494.634	9.9
495.064	13.5
495.494	9.6
495.924	12.7
496.353	20
496.783	7.9
497.212	19.2
497.642	16.7
498.071	3.7
498.501	9.8
498.93	26.5
499.359	6.1
499.789	2
500.218	9.1
500.647	6.7
501.076	10.6
501.505	4.1
501.934	9.6
502.363	7.4
502.792	13.3
503.221	8.9
503.649	12.3
504.078	9
504.507	6.2
504.935	2.2
505.364	8.8
505.792	8.1
506.221	5.2
506.649	6.4
507.077	4.5
507.506	10.5
507.934	19.1
508.362	-0.4
508.79	1.3
509.218	14.9
509.646	-0.3
510.074	11.5
510.502	15.7
510.93	2.1
511.357	19.3
511.785	19.5
512.213	3.8
512.64	3.6
513.068	5.5
513.496	10.5
513.923	8
514.35	7.5
514.778	10.3
515.205	6.7
515.632	11.9
516.059	0
516.486	3.3
516.914	3.8
517.341	7.4
517.768	7.8
518.194	-8.3
518.621	9.4
519.048	6.4
519.475	9.3
519.902	1.6
520.328	3.5
520.755	14.5
521.181	0
521.608	8
522.034	2.2
522.461	4.5
522.887	6.3
523.313	8.1
523.739	0.7
524.165	11.6
524.592	6.8
525.018	12.1
525.444	4.3
525.869	2.7
526.295	6
526.721	10.4
527.147	18.9
527.573	9.4
527.998	6.5
528.424	12.8
528.849	15.8
529.275	1.6
529.7	1.1
530.126	7.3
530.551	-3.7
530.976	16.4
531.402	-8.9
531.827	7.1
532.252	11.7
532.677	7.3
533.102	4.2
533.527	3.4
533.952	3.7
534.377	10.7
534.801	2.2
535.226	1.4
535.651	9.3
536.076	-0.9
536.5	4.5
536.925	-2.2
537.349	12.5
537.773	4.8
538.198	8.1
538.622	10.5
539.046	6.9
539.471	17.9
539.895	9.3
540.319	9.3
540.743	9.3
541.167	-1.8
541.591	14.9
542.015	12.3
542.438	11.9
542.862	4
543.286	10.2
543.71	5.5
544.133	6
544.557	8.2
544.98	5.8
545.404	13
545.827	3
546.25	17.1
546.674	15
547.097	3.9
547.52	8.6
547.943	8.6
548.366	7.6
548.789	5.1
549.212	13
549.635	10.5
550.058	6.7
550.481	21.3
550.903	14
551.326	12
551.749	7.4
552.171	13.4
552.594	25.2
553.016	18.2
553.438	18.5
553.861	4.2
554.283	14.1
554.705	5.6
555.128	0.4
555.55	13.5
555.972	7.2
556.394	9.1
556.816	8.3
557.238	6.3
557.659	8.1
558.081	11.9
558.503	9.5
558.925	16.8
559.346	10.5
559.768	4.7
560.189	4.7
560.611	4.8
561.032	8.6
561.454	3.6
561.875	11.1
562.296	2.6
562.718	14.5
563.139	13.8
563.56	9.7
563.981	15.4
564.402	7.3
564.823	15.9
565.244	7.2
565.664	7.5
566.085	14.8
566.506	2.3
566.927	2.3
567.347	6.2
567.768	17.5
568.188	16.1
568.609	7.5
569.029	7.6
569.449	-2
569.87	6.1
570.29	-0.6
570.71	4.2
571.13	-1.4
571.55	8
571.97	4.2
572.39	2.7
572.81	6.1
573.23	11.9
573.65	7.7
574.069	4.5
574.489	6.4
574.909	-2.4
575.328	-3.5
575.748	8.8
576.167	3.5
576.587	11.6
577.006	5.9
577.425	6.4
577.844	8.5
578.264	5.4
578.683	14.7
579.102	2.8
579.521	4.9
579.94	4.7
580.359	-6.8
580.778	-0.6
581.196	17.1
581.615	-4.6
582.034	11
582.452	5.7
582.871	2.4
583.29	5.5
583.708	16.8
584.126	13.2
584.545	3.4
584.963	9.3
585.381	7.4
585.8	3.5
586.218	10.7
586.636	-2.8
587.054	-2.9
587.472	5.4
587.89	9.8
588.308	4.7
588.725	7
589.143	7.8
589.561	4.9
589.979	3.1
590.396	-3.2
590.814	4.7
591.231	4.2
591.649	7.8
592.066	7.3
592.483	-0.4
592.901	-0.5
593.318	7.2
593.735	6.4
594.152	11.6
594.569	4.7
594.986	8.5
595.403	-5
595.82	0
596.237	2.6
596.654	8.2
597.07	3.3
597.487	3.8
597.904	0
598.32	14.4
598.737	5.9
599.153	-5.5
599.57	4.4
599.986	-7.3
600.402	2.5
600.818	3.4
601.235	-0.9
601.651	-5.9
602.067	3.7
602.483	9.5
602.899	5.6
603.315	-1.6
603.73	-1.6
604.146	-1.6
604.562	-2.2
604.978	-0.7
605.393	-3
605.809	-1.4
606.224	3.1
606.64	-3.4
607.055	8.4
607.471	3.8
607.886	6.9
608.301	-0.7
608.716	7.4
609.131	9.1
609.547	0.6
609.962	6.4
610.377	4.6
610.791	9.6
611.206	-4.7
611.621	6.2
612.036	-1.3
612.451	10.9
612.865	0.8
613.28	0.6
613.694	3.8
614.109	-0.1
614.523	7.4
614.938	6.4
615.352	7.2
615.766	22.2
616.18	21.3
616.595	17.4
617.009	12.9
617.423	9
617.837	7.8
618.251	10
618.664	12.6
619.078	22.9
619.492	15.9
619.906	19.9
620.319	15
620.733	19.1
621.146	4.7
621.56	14.8
621.973	26.2
622.387	14.9
622.8	22.7
623.213	33.7
623.627	23.3
624.04	20.9
624.453	30.8
624.866	23.1
625.279	26
625.692	36.7
626.105	35.4
626.518	43.7
626.93	39
627.343	53.7
627.756	51.2
628.168	45.9
628.581	43.7
628.993	43.8
629.406	61.5
629.818	46.3
630.231	65.2
630.643	68.8
631.055	62.4
631.467	65.8
631.879	78
632.291	78
632.703	94.1
633.115	92.9
633.527	102.2
633.939	103
634.351	96.4
634.763	120
635.174	117
635.586	127.4
635.997	113.7
636.409	124.1
636.82	127.1
637.232	139.8
637.643	134.6
638.054	136.6
638.466	142.6
638.877	138.3
639.288	148.6
639.699	149.3
640.11	135.8
640.521	154.9
640.932	147.5
641.343	155.1
641.753	136.1
642.164	141.7
642.575	137.1
642.986	143
643.396	148.2
643.807	155
644.217	155.8
644.627	156.9
645.038	149.2
645.448	163.2
645.858	167.1
646.269	155.5
646.679	168.9
647.089	174.5
647.499	174.1
647.909	171.1
648.319	172.3
648.728	179.5
649.138	162.8
649.548	175.8
649.958	170.8
650.367	168.9
650.777	167
651.186	172.7
651.596	164.7
652.005	163.5
652.415	171.5
652.824	153.9
653.233	142
653.642	149.2
654.052	132.3
654.461	135.9
654.87	135
655.279	125.6
655.688	121.6
656.096	128.1
656.505	119.5
656.914	116.7
657.323	118.6
657.731	114.3
658.14	128.4
658.548	113.6
658.957	103
659.365	103.7
659.774	107.9
660.182	96.5
660.59	110.2
660.998	100.9
661.407	97.3
661.815	105.6
662.223	97.3
662.631	104.2
663.039	90
663.446	98.2
663.854	91.4
664.262	97.9
664.67	76.9
665.077	85
665.485	81.7
665.892	79.8
666.3	57.1
666.707	54.3
667.115	67.5
667.522	48.1
667.929	59.2
668.337	51.4
668.744	52.8
669.151	41.1
669.558	54
669.965	31.9
670.372	44.4
670.779	32.6
671.185	33.1
671.592	33.3
671.999	27
672.405	26.3
672.812	22.6
673.219	26.6
673.625	33.3
674.032	32.7
674.438	11.5
674.844	14
675.25	22.7
675.657	22.4
676.063	21.7
676.469	20.5
676.875	16.3
677.281	17
677.687	14.1
678.093	18.4
678.499	3.5
678.904	12.8
679.31	12.2
679.716	8
680.121	10.3
680.527	-0.9
680.932	13.5
681.338	13.6
681.743	7.2
682.148	6.7
682.554	8.3
682.959	4.3
683.364	11.5
683.769	9.2
684.174	10
684.579	15.9
684.984	6.9
685.389	2.5
685.794	5.2
686.199	3.9
686.603	5.4
687.008	9.5
687.413	0.7
687.817	5.8
688.222	11.1
688.626	10.9
689.03	8.6
689.435	4.8
689.839	28.1
690.243	2.3
690.647	6.8
691.051	5.9
691.456	4
691.859	7.3
692.263	6.4
692.667	10.7
693.071	4
693.475	8.3
693.879	9.8
694.282	9.7
694.686	7.1
695.089	16.7
695.493	5.8
695.896	5.6
696.3	-4.8
696.703	6.4
697.106	4.7
697.509	6.7
697.913	7.5
698.316	4.3
698.719	10.4
699.122	5
699.525	-0.3
699.928	11.1
700.33	17
700.733	2.6
701.136	-3.3
701.539	10
701.941	5.5
702.344	10.7
702.746	4
703.149	6.4
703.551	-3.7
703.953	10.1
704.356	7.4
704.758	7.6
705.16	0.5
705.562	19.4
705.964	1.7
706.366	17
706.768	6
707.17	6
707.572	5.1
707.973	-2.6
708.375	-5.2
708.777	3.9
709.178	-0.3
709.58	1.8
709.981	0
710.383	5
710.784	10.9
711.186	3.6
711.587	8.7
711.988	13.1
712.389	1.9
712.79	13.1
713.191	12.7
713.592	4.7
713.993	11
714.394	0
714.795	2.3
715.196	2.3
715.596	-4.3
715.997	3.9
716.398	-0.7
716.798	5.2
717.199	-3
717.599	5.4
718	6.3
718.4	13.5
718.8	10
719.2	2
719.6	2.9
720.001	4.8
720.401	6.2
720.801	6.1
721.201	8.8
721.6	1.9
722	-1.2
722.4	0.5
722.8	6.9
723.199	1.6
723.599	2.4
723.998	1.2
724.398	7.7
724.797	1.5
725.197	-3.3
725.596	-3.6
725.995	5.9
726.394	7.8
726.794	3.9
727.193	1.2
727.592	8.8
727.991	3.1
728.39	0.4
728.789	9.3
729.187	1.1
729.586	3.1
729.985	-0.8
730.383	7.7
730.782	0.9
731.181	4.1
731.579	1.1
731.977	9.4
732.376	1.3
732.774	7.2
733.172	-1.7
733.571	8.4
733.969	5
734.367	4.4
734.765	6
735.163	4
735.561	9.8
735.959	5
736.356	9.2
736.754	7.8
737.152	-1.7
737.55	5.7
737.947	8.4
738.345	21.9
738.742	5.8
739.14	13.8
739.537	3.7
739.934	11.6
740.331	13.6
740.729	20.7
741.126	19.2
741.523	18.9
741.92	17.7
742.317	12.3
742.714	9
743.111	6
743.507	9.5
743.904	15.6
744.301	22.7
744.697	16.1
745.094	23.7
745.491	18.1
745.887	19.1
746.283	17
746.68	18.8
747.076	19.8
747.472	24.2
747.869	21.1
748.265	18.2
748.661	25
749.057	34.2
749.453	22.6
749.849	25.3
750.244	29.4
750.64	31.8
751.036	28.3
751.432	33.1
751.827	31
752.223	33.9
752.618	25
753.014	21.7
753.409	35.3
753.805	32.8
754.2	24.3
754.595	26.3
754.99	27
755.385	31.7
755.78	25.6
756.175	26.4
756.57	28
756.965	33
757.36	21.4
757.755	19.3
758.15	29
758.544	34.7
758.939	50.4
759.334	57.7
759.728	48.5
760.122	57.5
760.517	60.6
760.911	67.4
761.306	68
761.7	60.3
762.094	56
762.488	68.3
762.882	53.5
763.276	66.4
763.67	58.8
764.064	58.4
764.458	62.4
764.852	68.8
765.245	67.6
765.639	75
766.033	71.1
766.426	80.9
766.82	80.3
767.213	74.6
767.606	84.8
768	85
768.393	85.5
768.786	77.6
769.179	82.5
769.572	83.2
769.966	70.1
770.358	75
770.751	64.3
771.144	65.8
771.537	58.4
771.93	59.8
772.323	56.3
772.715	56.4
773.108	47
773.5	52.9
773.893	47.3
774.285	48.7
774.678	51
775.07	53.8
775.462	56.6
775.854	37.3
776.247	36.4
776.639	42.7
777.031	30.7
777.423	39.1
777.815	31.6
778.207	37.8
778.598	35.6
778.99	32.4
779.382	39.9
779.773	60.2
780.165	66.3
780.557	86.5
780.948	85.4
781.339	89.1
781.731	91.1
782.122	93.1
782.513	94.4
782.905	91.8
783.296	95.1
783.687	101.9
784.078	83.8
784.469	89.1
784.86	88
785.251	81.1
785.641	81.7
786.032	76.4
786.423	80.5
786.813	96.2
787.204	69.2
787.594	84.1
787.985	94.4
788.375	74.8
788.766	64.4
789.156	51.8
789.546	57.8
789.936	48.1
790.326	48.6
790.717	50.7
791.107	49.9
791.497	38.6
791.886	39.8
792.276	47.6
792.666	27.6
793.056	28.6
793.445	30.3
793.835	28.1
794.225	15.7
794.614	36.6
795.004	20.7
795.393	22.8
795.782	24.5
796.172	31.2
796.561	37.7
796.95	30.6
797.339	22.3
797.728	34.1
798.117	29
798.506	19.5
798.895	23.9
799.284	25.9
799.673	32.7
800.061	24.1
800.45	24.9
800.839	13.7
801.227	16.9
801.616	18.3
802.004	11.9
802.392	17.1
802.781	15
803.169	20.3
803.557	9.7
803.945	16.2
804.333	8.4
804.721	19
805.109	15.2
805.497	2.9
805.885	10.1
806.273	16.1
806.661	13.9
807.048	18.4
807.436	18.8
807.824	10.2
808.211	5.9
808.599	5.5
808.986	9.3
809.373	4.2
809.761	11.3
810.148	9.3
810.535	21.3
810.922	9.7
811.309	14.7
811.696	11.4
812.083	9.5
812.47	9.4
812.857	15.6
813.244	4.1
813.631	-4.4
814.017	4.5
814.404	20.9
814.791	2.9
815.177	5
815.564	9.6
815.95	9.8
816.336	14
816.723	5.2
817.109	13.6
817.495	10.2
817.881	8.3
818.267	4.6
818.653	11.3
819.039	0.9
819.425	16
819.811	14.7
820.197	3.9
820.582	3.3
820.968	4.4
821.354	3.3
821.739	-0.6
822.125	-4.1
822.51	8.8
822.895	10
823.281	11.9
823.666	9.6
824.051	16.5
824.436	4.3
824.822	-2
825.207	-1.2
825.592	4.3
825.976	6.2
826.361	10.2
826.746	8.5
827.131	-0.4
827.516	6.8
827.9	7.2
828.285	2.4
828.669	3.1
829.054	2.5
829.438	2.4
829.823	7.6
830.207	0.6
830.591	19.3
830.975	11.9
831.36	-0.3
831.744	5
832.128	-0.5
832.512	1
832.895	5.6
833.279	7.2
833.663	13.3
834.047	11.3
834.431	6.8
834.814	11.5
835.198	0.1
835.581	2.2
835.965	5.2
836.348	6.8
836.731	8.8
837.115	12.3
837.498	-2.8
837.881	9.6
838.264	2.3
838.647	2.8
839.03	7.7
839.413	1
839.796	2
840.179	-9.2
840.562	9.8
840.944	5.6
841.327	4.3
841.71	8.7
842.092	4.4
842.475	4.8
842.857	6.8
843.24	8.7
843.622	11.2
844.004	8.6
844.386	6.9
844.769	0.5
845.151	8.7
845.533	14.8
845.915	2.1
846.297	7.2
846.678	1.1
847.06	4.8
847.442	22.2
847.824	7.2
848.205	8.6
848.587	-3.7
848.968	12.4
849.35	-4
849.731	4.7
850.113	-1.4
850.494	5.7
850.875	-0.6
851.256	4.1
851.638	9.9
852.019	6
852.4	-1.4
852.781	7.7
853.161	1.1
853.542	-0.5
853.923	1.4
854.304	0.5
854.685	3.9
855.065	11.5
855.446	1
855.826	11.2
856.207	2.4
856.587	14.2
856.967	12
857.348	6.9
857.728	10.5
858.108	3.4
858.488	-4.7
858.868	-0.3
859.248	6.3
859.628	-1.2
860.008	9.3
860.388	8.7
860.768	6.2
861.147	-11.4
861.527	10.3
861.907	4.4
862.286	0.2
862.666	13.3
863.045	7.4
863.424	12.7
863.804	-2.8
864.183	1.7
864.562	-1
864.941	1.3
865.32	5.9
865.699	10.1
866.078	-10.1
866.457	6.4
866.836	-3
867.215	8.1
867.594	6.9
867.972	0.1
868.351	6.4
868.729	2.6
869.108	9.1
869.486	10.9
869.865	0.8
870.243	4.2
870.621	7.1
871	7.1
871.378	16.9
871.756	5.2
872.134	2
872.512	10.7
872.89	18.6
873.268	17.3
873.646	14.9
874.023	-6
874.401	-1
874.779	15.7
875.156	7.2
875.534	2.9
875.911	1
876.289	1.3
876.666	-1
877.043	5.7
877.421	9.3
877.798	12.3
878.175	9.9
878.552	3.9
878.929	3.9
879.306	1.5
879.683	4.2
880.06	5.4
880.437	6.1
880.813	13.2
881.19	-0.6
881.567	8.8
881.943	-0.9
882.32	4.7
882.696	11
883.073	3.4
883.449	5.8
883.825	5
884.202	-2.4
884.578	4.7
884.954	10
885.33	11.3
885.706	4.7
886.082	-6.9
886.458	3.5
886.834	5.1
887.209	6
887.585	3.9
887.961	4.7
888.336	4.4
888.712	4.9
889.087	3
889.463	7.7
889.838	11.1
890.213	7.6
890.589	3
890.964	7.3
891.339	5.2
891.714	6.6
892.089	6
892.464	6
892.839	6.8
893.214	9.4
893.589	-0.2
893.963	14.8
894.338	3.9
894.713	-4
895.087	16
895.462	5.2
895.836	0.6
896.211	4.4
896.585	7.6
896.959	12.5
897.334	12
897.708	9.8
898.082	9.6
898.456	2.1
898.83	15.7
899.204	15
899.578	-1.3
899.952	8
900.325	5.5
900.699	-18.4
901.073	8
901.446	3.4
901.82	1.7
902.193	7.1
902.567	18.1
902.94	4.4
903.313	10.7
903.687	4.8
904.06	7.8
904.433	9.9
904.806	9.4
905.179	12
905.552	17.4
905.925	12.4
906.298	9.4
906.671	16
907.043	5.1
907.416	1.9
907.789	8.8
908.161	7.5
908.534	13.1
908.906	15.4
909.279	10
909.651	12.4
910.023	4.8
910.396	2
910.768	13.2
911.14	6.9
911.512	10
911.884	12.3
912.256	7.3
912.628	14
912.999	7.8
913.371	5.1
913.743	11
914.115	6.9
914.486	14.2
914.858	8
915.229	9.6
915.601	11
915.972	15.5
916.343	17.6
916.715	14.4
917.086	-3.6
917.457	15.1
917.828	2.4
918.199	13.1
918.57	11.4
918.941	-3.4
919.312	-1.2
919.682	10.8
920.053	5.4
920.424	6
920.794	10.4
921.165	0.8
921.536	8.5
921.906	9.8
922.276	3.2
922.647	-9
923.017	13.5
923.387	1.6
923.757	11
924.127	15
924.497	17.4
924.867	4.5
925.237	14.8
925.607	9.4
925.977	8.5
926.347	7.3
926.716	6
927.086	15.2
927.456	4.2
927.825	8.2
928.195	4.6
928.564	8
928.933	14.6
929.303	8.9
929.672	9.3
930.041	2.5
930.41	14.5
930.779	4.9
931.148	25.3
931.517	7.8
931.886	4.5
932.255	0.1
932.624	9.1
932.993	11.1
933.361	3.4
933.73	14
934.098	14.1
934.467	7
934.835	8.7
935.204	4.3
935.572	10.7
935.94	8.8
936.308	11.6
936.677	13.7
937.045	8.9
937.413	13.1
937.781	16.7
938.149	15.2
938.516	9.1
938.884	21.3
939.252	8.4
939.62	9
939.987	16.7
940.355	10.8
940.722	16.9
941.09	10.1
941.457	9.8
941.825	9.5
942.192	0
942.559	13.3
942.926	2.6
943.293	19.5
943.66	19.3
944.027	7.5
944.394	13.2
944.761	5
945.128	16.9
945.495	17.4
945.861	11
946.228	16.4
946.595	8.1
946.961	22.6
947.328	10.9
947.694	10
948.06	13.3
948.427	3.6
948.793	10.2
949.159	1.7
949.525	-0.3
949.891	13.6
950.257	11.6
950.623	17
950.989	6.8
951.355	10.7
951.721	14.2
952.087	3.9
952.452	3.5
952.818	5.9
953.183	10
953.549	6.9
953.914	18.7
954.28	10.4
954.645	10.4
955.01	13.4
955.375	7.2
955.741	4.4
956.106	9.9
956.471	2.4
956.836	4.2
957.201	-6.1
957.566	4.4
957.93	7.5
958.295	18.5
958.66	10.8
959.024	14.7
959.389	4.6
959.753	11.2
960.118	5.2
960.482	11.9
960.847	14
961.211	-5.1
961.575	12.8
961.939	8.5
962.303	3.2
962.667	8.7
963.031	8.6
963.395	13.5
963.759	6.5
964.123	1.8
964.487	3.3
964.851	5.6
965.214	5.1
965.578	8.8
965.941	9.1
966.305	6
966.668	17.2
967.032	9.3
967.395	0.7
967.758	5.3
968.121	11.5
968.484	10.5
968.847	2
969.21	10.4
969.573	6.8
969.936	4.5
970.299	-1.2
970.662	17.7
971.025	4.9
971.387	2.2
971.75	11.6
972.112	13.5
972.475	15.8
972.837	10.9
973.2	8.9
973.562	9.7
973.924	10.1
974.286	5.2
974.649	-0.6
975.011	8.8
975.373	5.1
975.735	3.2
976.097	8.1
976.458	5.5
976.82	12.7
977.182	14.8
977.544	3.9
977.905	6.4
978.267	11.8
978.628	5.1
978.99	8.4
979.351	3.3
979.712	11.2
980.074	14.7
980.435	4.5
980.796	7.8
981.157	5.5
981.518	2.5
981.879	6.1
982.24	10
982.601	9
982.962	6.5
983.323	0.9
983.683	7.9
984.044	10.2
984.404	8.5
984.765	6.4
985.125	11
985.486	5.2
985.846	-5.5
986.206	3.5
986.567	3.1
986.927	4.5
987.287	2.7
987.647	1.3
988.007	3.8
988.367	11.8
988.727	3.4
989.087	0.7
989.446	5.9
989.806	4.2
990.166	-0.8
990.525	3.5
990.885	0.1
991.244	6.7
991.604	4.2
991.963	5.4
992.322	7.4
992.682	0.5
993.041	5.9
993.4	5.6
993.759	2.1
994.118	3.7
994.477	2.1
994.836	8
995.195	10.3
995.553	10.3
995.912	-1.8
996.271	11.4
996.629	4.9
996.988	11.5
997.346	12.2
997.705	4.6
998.063	13.8
998.422	-1.8
998.78	21.9
999.138	3.3
999.496	7.1
999.854	5.3
1000.212	9.4
1000.57	5.2
1000.928	3.5
1001.286	0.4
1001.644	4.6
1002.001	4.7
1002.359	1.9
1002.717	3.3
1003.074	0.1
1003.432	-2
1003.789	-2.5
1004.147	12
1004.504	5.4
1004.861	8.8
1005.218	5.6
1005.576	4.7
1005.933	11.8
1006.29	4.4
1006.647	6.9
1007.004	0.2
1007.36	7.9
1007.717	6.4
1008.074	15.5
1008.431	8.4
1008.787	-1.2
1009.144	7.6
1009.5	-3.9
1009.857	4
1010.213	0.8
1010.569	1
1010.926	12.7
1011.282	5.5
1011.638	7.3
1011.994	0.9
1012.35	6.3
1012.706	1.3
1013.062	-0.1
1013.418	15.6
1013.774	-4.2
1014.13	7.6
1014.485	5.5
1014.841	5.9
1015.197	0.2
1015.552	-0.1
1015.907	1
1016.263	1.6
1016.618	1.1
1016.974	3.8
1017.329	2.9
1017.684	1.3
1018.039	3.6
1018.394	-5.3
1018.749	-1
1019.104	-12.9
1019.459	3.8
1019.814	3.4
1020.168	2.5
1020.523	6.2
1020.878	8.9
1021.232	0.3
1021.587	1.8
1021.941	1.1
1022.296	4.5
1022.65	0.3
1023.004	12.9
1023.359	1.7
1023.713	-1.4
1024.067	-1.5
1024.421	5.3
1024.775	5.2
1025.129	9.8
1025.483	8.4
1025.837	0.9
1026.19	8.1
1026.544	-4.4
1026.898	0
1027.251	9.3
1027.605	8.2
1027.958	-1.8
1028.312	5
1028.665	4.5
1029.018	11
1029.372	4.3
1029.725	-0.8
1030.078	8.1
1030.431	9.5
1030.784	9
1031.137	-1.7
1031.49	1.7
1031.843	12.7
1032.195	0.5
1032.548	-4.1
1032.901	7
1033.253	7.6
1033.606	9.2
1033.958	10.1
1034.311	1.7
1034.663	-1.5
1035.016	-1.6
1035.368	-5.2
1035.72	2.3
1036.072	8.3
1036.424	4.7
1036.776	8.5
1037.128	1.3
1037.48	3.6
