Data from 0.60bar_Subt2__0__18-04-38-333.txt Node

Date: Thu Jan 06 18:04:38 CET 2022
User: fsatto
Spectrometer: OFX01956
Trigger mode: 0
Integration Time (sec): 2.000000E-3
Scans to average: 10
Nonlinearity correction enabled: false
Boxcar width: 0
Storing dark spectrum: false
XAxis mode: Wavelengths
Number of Pixels in Spectrum: 2136
>>>>>Begin Spectral Data<<<<<
158.236	-3.5
158.705	-10.3
159.174	2.4
159.643	-1.2
160.112	2.3
160.582	0.6
161.051	3
161.52	1.7
161.988	0.4
162.457	0
162.926	-2.2
163.395	-4
163.864	-2.2
164.332	3.4
164.801	-7
165.269	-3.7
165.738	-11.2
166.206	-3.9
166.675	-2.1
167.143	-2.2
167.612	-0.4
168.08	-1.6
168.548	0.4
169.016	0
169.484	-3.1
169.952	0.8
170.42	-1.9
170.888	1.9
171.356	0
171.824	-1.3
172.292	-6.2
172.759	5.4
173.227	1.2
173.695	-7.4
174.162	2.2
174.63	1.2
175.097	2.3
175.565	1
176.032	-3.6
176.499	-7.6
176.967	-4.7
177.434	-2
177.901	-1.3
178.368	8.2
178.835	-2.7
179.302	2
179.769	1.3
180.236	3.9
180.703	-3.7
181.17	4.8
181.637	-4
182.103	4.4
182.57	-3.4
183.036	-0.6
183.503	4.6
183.97	3.3
184.436	-0.9
184.902	8.4
185.369	0.2
185.835	-0.8
186.301	2.1
186.767	-0.3
187.234	0.2
187.7	-6.4
188.166	-3.8
188.632	4.9
189.098	-0.8
189.563	-3.6
190.029	-8.9
190.495	-4.6
190.961	4
191.426	-5.6
191.892	-3
192.358	1.2
192.823	-10.7
193.289	2.2
193.754	4.3
194.219	2.3
194.685	5.4
195.15	7.4
195.615	-4.2
196.08	7.9
196.545	4.9
197.01	1.4
197.475	0.8
197.94	-8.5
198.405	-4.7
198.87	1.7
199.335	0.7
199.8	-1.7
200.264	60
200.729	55.1
201.193	47.3
201.658	52.9
202.122	64.8
202.587	65.9
203.051	54.5
203.516	82.3
203.98	75.8
204.444	85.8
204.908	89.7
205.372	107
205.836	116.8
206.3	123.6
206.764	141.7
207.228	154.7
207.692	160.6
208.156	190.3
208.62	210.2
209.083	245.7
209.547	273.8
210.011	360
210.474	406.5
210.938	447.2
211.401	484.3
211.864	531.7
212.328	564.8
212.791	658.2
213.254	740.4
213.717	800.3
214.181	887.3
214.644	1062.7
215.107	1214.4
215.57	1356.3
216.033	1517.9
216.495	1713.9
216.958	1920.6
217.421	2032.6
217.884	2236.7
218.346	2437.5
218.809	2559.2
219.272	2559.9
219.734	2524.5
220.196	2399.7
220.659	2536.8
221.121	2709
221.584	2977.5
222.046	3249.2
222.508	3251.1
222.97	3282
223.432	3461
223.894	3951.6
224.356	4395.5
224.818	4602.3
225.28	4674.6
225.742	4845.3
226.204	5616.4
226.665	6456
227.127	7050.6
227.589	7274.2
228.05	7399.3
228.512	7558.9
228.973	7802.4
229.435	7958.9
229.896	8223.5
230.357	9123.8
230.818	9955.8
231.28	10040.2
231.741	9588.5
232.202	8991
232.663	8965.9
233.124	9935.2
233.585	11546.8
234.046	12092.7
234.507	10886.1
234.967	8683.6
235.428	7713.7
235.889	8609.4
236.349	10576.1
236.81	12024.7
237.271	11282.3
237.731	8966.9
238.191	7434.8
238.652	7912.8
239.112	10268
239.572	12681.7
240.033	12925.4
240.493	10422.4
240.953	8551.4
241.413	8945.5
241.873	10988.7
242.333	12802.3
242.793	11965.2
243.253	9702.5
243.712	8232
244.172	9013.7
244.632	11187.8
245.092	13265.2
245.551	12996
246.011	10665.8
246.47	8616.8
246.93	9233.5
247.389	12960.4
247.848	17177.4
248.308	18736
248.767	17453
249.226	14720.8
249.685	13082.9
250.144	14559
250.603	18897.9
251.062	22133.2
251.521	21926.5
251.98	18948.8
252.439	15611.8
252.897	13674.2
253.356	15177.4
253.815	18510.1
254.273	21137.4
254.732	21419
255.19	17667.3
255.649	13714.1
256.107	12000
256.566	12450.2
257.024	14835.2
257.482	16408.4
257.94	16095.1
258.398	15438.4
258.856	14212.9
259.315	13875.8
259.772	15287.6
260.23	16805.1
260.688	17200.5
261.146	15940.2
261.604	14021.2
262.062	13427.1
262.519	14242.6
262.977	16271.7
263.434	17065.3
263.892	17311.4
264.349	17454.6
264.807	17389.4
265.264	17061.6
265.721	16906.6
266.179	17463.6
266.636	17152.8
267.093	16506.2
267.55	16885.4
268.007	18091.1
268.464	18876.3
268.921	19019.3
269.378	18417.6
269.835	18147.7
270.291	18138.2
270.748	17949.5
271.205	17945
271.661	17683.3
272.118	17422.8
272.574	17545.7
273.031	17944.7
273.487	17525
273.944	16583.6
274.4	16260.5
274.856	16489.6
275.312	16385.4
275.768	16611.6
276.225	16610.1
276.681	16208.5
277.137	15390.6
277.593	14726.7
278.048	14758.1
278.504	15014.7
278.96	14762.2
279.416	13841.2
279.871	12649.6
280.327	11943.3
280.783	11831.1
281.238	11963.2
281.694	11593.5
282.149	11328.8
282.604	11202
283.06	10897.5
283.515	10369.6
283.97	9997.3
284.425	9638.6
284.88	9287
285.335	9003.4
285.79	8228.7
286.245	7510.9
286.7	7494
287.155	7764.5
287.61	7781.3
288.064	7941.8
288.519	8288.9
288.974	8397.5
289.428	8260.4
289.883	8302.8
290.337	8462.5
290.792	8955
291.246	9749.4
291.7	10198.6
292.155	10435.1
292.609	10553.1
293.063	10395.3
293.517	10488.3
293.971	10936.1
294.425	11452.3
294.879	12055.7
295.333	12525
295.787	12623.3
296.241	12398.5
296.694	12712.9
297.148	13439.8
297.602	14170.1
298.055	14696.9
298.509	14738.7
298.962	14160.8
299.416	14049.1
299.869	14263.6
300.322	14346.4
300.775	14470.7
301.229	14428.8
301.682	14526.3
302.135	14524
302.588	14200.5
303.041	13763.7
303.494	13149.4
303.947	12431.8
304.4	12227.5
304.852	12021.1
305.305	11666.2
305.758	11127.1
306.21	10371.9
306.663	9960.1
307.115	9823.1
307.568	10033.3
308.02	10247.3
308.473	10159.2
308.925	9645.3
309.377	9246.5
309.829	8957.6
310.282	8962
310.734	8714.9
311.186	8386.9
311.638	8029
312.09	7749.6
312.542	7413.7
312.993	7017.7
313.445	6817.2
313.897	6675.5
314.349	6455.4
314.8	6303.7
315.252	6123.8
315.703	5957.1
316.155	5749.3
316.606	5696.7
317.058	5538.4
317.509	5536.1
317.96	5416.2
318.411	5191.7
318.863	5108.1
319.314	5051.7
319.765	4885.2
320.216	4665.6
320.667	4389.3
321.117	4164.7
321.568	4103.3
322.019	4009.5
322.47	3886.9
322.921	3795.4
323.371	3642
323.822	3421.7
324.272	3221.6
324.723	3025.6
325.173	2861.8
325.623	2699.3
326.074	2541.4
326.524	2443
326.974	2885.6
327.424	4189.9
327.874	5209.1
328.325	4124.3
328.775	2854.7
329.224	2715.9
329.674	2548.6
330.124	2475.2
330.574	2366.5
331.024	2227.6
331.473	2137.1
331.923	1932.3
332.373	1792.2
332.822	1630.9
333.272	1535.9
333.721	1457.1
334.17	1368.1
334.62	1258.4
335.069	1186.2
335.518	1101.1
335.967	1050.6
336.416	998.8
336.865	947.2
337.314	873.7
337.763	807.2
338.212	730.7
338.661	672.6
339.11	605.8
339.558	562.5
340.007	569.5
340.456	564.9
340.904	555.8
341.353	522.6
341.801	480.4
342.25	473.8
342.698	420.2
343.146	376.3
343.595	324
344.043	308.5
344.491	292.1
344.939	278.4
345.387	261.1
345.835	247.4
346.283	233.9
346.731	214.6
347.179	199.9
347.626	182
348.074	166.8
348.522	164.3
348.969	141.2
349.417	143.3
349.865	126.9
350.312	132.7
350.759	117.3
351.207	102.5
351.654	86.6
352.101	89.4
352.548	79.5
352.996	71.8
353.443	66.2
353.89	67.4
354.337	54.2
354.784	62.4
355.231	58.2
355.677	42.3
356.124	48.5
356.571	47.6
357.018	49.3
357.464	43.7
357.911	44
358.357	43.2
358.804	48.9
359.25	43.6
359.696	42.6
360.143	31.1
360.589	33.9
361.035	33.5
361.481	27.5
361.927	23.5
362.373	25.2
362.819	21.3
363.265	21.2
363.711	17.7
364.157	27.3
364.603	13.6
365.048	22.9
365.494	17.4
365.94	22
366.385	15.9
366.831	12.8
367.276	12.4
367.722	9.4
368.167	8.8
368.612	8.8
369.057	15.1
369.503	13.1
369.948	12.5
370.393	16.1
370.838	14.6
371.283	4.6
371.728	13.9
372.173	10.4
372.617	12.3
373.062	4.2
373.507	-1.5
373.951	9.5
374.396	4.8
374.841	8.8
375.285	12.2
375.729	-0.2
376.174	12.3
376.618	9.2
377.062	0.9
377.507	2.6
377.951	13.3
378.395	5.5
378.839	6.5
379.283	0
379.727	7.4
380.171	14.5
380.615	11.2
381.059	14
381.502	6.7
381.946	3.1
382.39	10.7
382.833	4.6
383.277	14.7
383.72	9.3
384.164	13
384.607	12.6
385.05	12
385.494	14.8
385.937	5.7
386.38	13.3
386.823	12
387.266	10.6
387.709	11.1
388.152	14.5
388.595	5.9
389.038	4.4
389.481	2.3
389.923	8.5
390.366	0.4
390.809	-0.4
391.251	14.7
391.694	7.9
392.136	3.3
392.579	3.9
393.021	7.4
393.463	14.5
393.906	15.1
394.348	10
394.79	8.4
395.232	10.2
395.674	12.6
396.116	3.2
396.558	6.3
397	-0.5
397.442	6.7
397.884	11.5
398.325	10.2
398.767	9.6
399.209	6.3
399.65	6.5
400.092	13.6
400.533	9.3
400.974	18.1
401.416	17.7
401.857	3.9
402.298	6.1
402.74	12.5
403.181	12.8
403.622	5.9
404.063	19.8
404.504	3.8
404.945	14.1
405.386	9.4
405.826	13.6
406.267	6.1
406.708	12.8
407.149	7.9
407.589	2.1
408.03	10.4
408.47	7
408.911	9
409.351	5.9
409.791	15.5
410.232	12.1
410.672	8.1
411.112	3.6
411.552	8.2
411.992	9.4
412.432	5.7
412.872	3.9
413.312	14.5
413.752	11.5
414.192	6.9
414.632	7.9
415.071	11.9
415.511	0.4
415.951	-2.3
416.39	6.7
416.83	6.1
417.269	9.8
417.708	6.9
418.148	3
418.587	13.8
419.026	5.9
419.465	6.5
419.904	8.6
420.344	19.8
420.783	7.2
421.221	3.9
421.66	9.4
422.099	4.5
422.538	14.5
422.977	7.8
423.415	5.9
423.854	13.6
424.293	7.5
424.731	9.9
425.17	9.5
425.608	2.7
426.046	11.9
426.485	2.5
426.923	0.2
427.361	10.4
427.799	7.7
428.237	8.7
428.675	13.6
429.113	2.1
429.551	4.6
429.989	11
430.427	5.1
430.865	10.7
431.303	3.5
431.74	14.1
432.178	14.9
432.615	0
433.053	4.1
433.49	4.7
433.928	6.1
434.365	1.1
434.802	8
435.24	2.2
435.677	15.5
436.114	14.9
436.551	-2
436.988	-0.4
437.425	10.2
437.862	-1.3
438.299	18.4
438.736	10.1
439.172	-1.4
439.609	1.8
440.046	5.7
440.482	10.6
440.919	9.3
441.355	-0.4
441.792	7.8
442.228	2.1
442.665	7.8
443.101	1.1
443.537	4.4
443.973	16.6
444.409	3.4
444.845	-0.1
445.281	3.1
445.717	13.1
446.153	17.3
446.589	2.3
447.025	1.9
447.461	6.4
447.896	-2.3
448.332	7.8
448.768	9
449.203	11.9
449.639	11.3
450.074	1.8
450.509	4.9
450.945	10.1
451.38	6.6
451.815	11.8
452.25	6.2
452.685	5.2
453.12	9.8
453.555	-6.8
453.99	4.1
454.425	8.2
454.86	9.2
455.295	-3.2
455.73	0.9
456.164	20.7
456.599	2.5
457.033	2.9
457.468	5.1
457.902	3.1
458.337	5.8
458.771	5.1
459.205	1.3
459.64	7.1
460.074	-4.3
460.508	9.5
460.942	15
461.376	-5.6
461.81	6.9
462.244	6.9
462.678	18.9
463.112	5.5
463.545	9.8
463.979	7.5
464.413	4
464.846	7
465.28	13.1
465.713	8.3
466.147	1.2
466.58	6.5
467.014	15.4
467.447	14.7
467.88	14.2
468.313	10.3
468.746	17.4
469.179	8.5
469.612	6.6
470.045	4.7
470.478	-5.5
470.911	0.8
471.344	4.7
471.777	4.3
472.209	7.8
472.642	10.7
473.074	11.7
473.507	8.3
473.939	13.6
474.372	8.5
474.804	9.6
475.236	12.2
475.669	2.9
476.101	9.3
476.533	10.7
476.965	3.1
477.397	-5.3
477.829	23.4
478.261	15.1
478.693	6.4
479.125	5.6
479.557	9.2
479.988	15.4
480.42	16.3
480.852	7
481.283	12
481.715	8.3
482.146	9
482.577	11.3
483.009	19.7
483.44	19.4
483.871	22.7
484.302	15.7
484.734	8.3
485.165	15.1
485.596	13.3
486.027	16.6
486.457	11.4
486.888	14.1
487.319	3.2
487.75	-1.5
488.181	7.8
488.611	14.6
489.042	5.3
489.472	15.2
489.903	5.1
490.333	8.7
490.764	2.6
491.194	11.6
491.624	10.2
492.054	5.5
492.484	4.7
492.915	14.1
493.345	13.5
493.775	5.5
494.204	11
494.634	6.6
495.064	14.8
495.494	8.8
495.924	2.2
496.353	5.2
496.783	6.8
497.212	13.5
497.642	14.2
498.071	1.6
498.501	-0.8
498.93	12.8
499.359	9.2
499.789	-1
500.218	14.1
500.647	7.8
501.076	10.7
501.505	5.1
501.934	10.8
502.363	4.8
502.792	12.1
503.221	7.7
503.649	7
504.078	10.4
504.507	0.4
504.935	8.3
505.364	4.6
505.792	4.2
506.221	-5
506.649	7.6
507.077	-2
507.506	2.9
507.934	16.1
508.362	6.8
508.79	2.1
509.218	9.4
509.646	0.6
510.074	19.4
510.502	8.1
510.93	5.6
511.357	16.5
511.785	10.6
512.213	0.4
512.64	3.7
513.068	1.5
513.496	15.3
513.923	12
514.35	5.9
514.778	6.1
515.205	15.2
515.632	6.7
516.059	15.7
516.486	7.3
516.914	12.5
517.341	11.5
517.768	2.3
518.194	2
518.621	14.8
519.048	3.2
519.475	10.2
519.902	-4.6
520.328	0.6
520.755	6
521.181	6.4
521.608	5.9
522.034	5.8
522.461	3.8
522.887	5.2
523.313	3.5
523.739	5.4
524.165	15.8
524.592	5.5
525.018	12.5
525.444	2.5
525.869	3.4
526.295	-1.6
526.721	3.6
527.147	5.6
527.573	15.9
527.998	10.3
528.424	7.9
528.849	5.8
529.275	2.1
529.7	6.8
530.126	4.8
530.551	2.3
530.976	7.2
531.402	-7.5
531.827	11.1
532.252	8.3
532.677	5.2
533.102	-2.8
533.527	5.6
533.952	6.4
534.377	4.3
534.801	6.5
535.226	-4.9
535.651	3.1
536.076	-1.3
536.5	-2.8
536.925	-4
537.349	4.6
537.773	1
538.198	3.1
538.622	11.5
539.046	3.6
539.471	10.5
539.895	5.1
540.319	10.6
540.743	3.8
541.167	1.2
541.591	17.6
542.015	10.3
542.438	7.4
542.862	3.8
543.286	7.7
543.71	8.3
544.133	11.7
544.557	12
544.98	4.8
545.404	16.1
545.827	3.7
546.25	7.7
546.674	13.2
547.097	1.1
547.52	7.8
547.943	-0.9
548.366	7.2
548.789	-2.1
549.212	3.7
549.635	0.4
550.058	10.5
550.481	6.1
550.903	9.9
551.326	6.5
551.749	7.7
552.171	13.2
552.594	16.8
553.016	5.8
553.438	8.5
553.861	6.4
554.283	-1.4
554.705	1.4
555.128	0.8
555.55	7.4
555.972	1.7
556.394	8.3
556.816	4.1
557.238	0.8
557.659	5.4
558.081	11.5
558.503	12.3
558.925	13.2
559.346	8.4
559.768	4.2
560.189	4.1
560.611	6.4
561.032	4.7
561.454	0.5
561.875	11.5
562.296	-5.4
562.718	3
563.139	4.2
563.56	4.2
563.981	10.5
564.402	4.9
564.823	11.1
565.244	5.7
565.664	7.9
566.085	9.3
566.506	1
566.927	0.5
567.347	1.5
567.768	6.4
568.188	10.7
568.609	9.4
569.029	-4.2
569.449	9.3
569.87	6
570.29	0.5
570.71	1.7
571.13	-0.5
571.55	8.5
571.97	5.1
572.39	5.5
572.81	1.8
573.23	7.2
573.65	6.5
574.069	6.7
574.489	-1.6
574.909	-6.3
575.328	-3.5
575.748	5.1
576.167	7.6
576.587	11.4
577.006	4
577.425	7.7
577.844	8.1
578.264	-1.9
578.683	6.3
579.102	-4.8
579.521	1.4
579.94	4.1
580.359	0.8
580.778	-4.5
581.196	0.4
581.615	-3.5
582.034	3.7
582.452	6.9
582.871	6.6
583.29	2.8
583.708	9
584.126	12.3
584.545	-0.5
584.963	11.7
585.381	9.3
585.8	-0.2
586.218	9.7
586.636	-2.8
587.054	-8.3
587.472	4.6
587.89	3.6
588.308	5.1
588.725	-3.3
589.143	11.9
589.561	0.2
589.979	2.7
590.396	-8.8
590.814	5.1
591.231	7.1
591.649	7.3
592.066	-6
592.483	-6.3
592.901	3.3
593.318	5
593.735	4.3
594.152	6.9
594.569	-2.4
594.986	3.8
595.403	-2.8
595.82	-2.5
596.237	1
596.654	6.9
597.07	6.2
597.487	-0.6
597.904	-4.2
598.32	11.4
598.737	7.6
599.153	-3.1
599.57	-0.3
599.986	-3.3
600.402	2.2
600.818	-1.8
601.235	2.5
601.651	-2.4
602.067	3.8
602.483	2.1
602.899	9.4
603.315	-4.1
603.73	7.2
604.146	-0.9
604.562	1.1
604.978	-2.4
605.393	-4.6
605.809	-2.9
606.224	3.9
606.64	-8.1
607.055	15.4
607.471	3.7
607.886	0.1
608.301	-1.3
608.716	4.1
609.131	1.8
609.547	6.4
609.962	11.5
610.377	5.5
610.791	10.1
611.206	5.4
611.621	6.4
612.036	-2.9
612.451	6.9
612.865	-1.3
613.28	3.4
613.694	8.2
614.109	10.9
614.523	2.3
614.938	-0.4
615.352	-3.4
615.766	12.8
616.18	12.9
616.595	13.3
617.009	9
617.423	9.1
617.837	7.7
618.251	3.1
618.664	12.8
619.078	13.8
619.492	17.5
619.906	21.6
620.319	9.5
620.733	16.9
621.146	19.7
621.56	13.2
621.973	17.6
622.387	6.4
622.8	16.6
623.213	18.7
623.627	25.6
624.04	20.9
624.453	27.6
624.866	17.8
625.279	23.4
625.692	37.1
626.105	33.4
626.518	34.2
626.93	38.2
627.343	43.2
627.756	43.7
628.168	37.8
628.581	37.5
628.993	29.8
629.406	47
629.818	43.8
630.231	52.2
630.643	59.3
631.055	47.3
631.467	61.7
631.879	68.6
632.291	62.6
632.703	83.4
633.115	69.2
633.527	84.6
633.939	90.1
634.351	93.6
634.763	96.9
635.174	105.5
635.586	111.9
635.997	111.4
636.409	115.2
636.82	115.9
637.232	120.2
637.643	116.6
638.054	112.4
638.466	119.6
638.877	115.3
639.288	119
639.699	125.9
640.11	113.9
640.521	125.7
640.932	118.5
641.343	117.6
641.753	123.3
642.164	113.8
642.575	113.3
642.986	123.4
643.396	133.7
643.807	135.7
644.217	144.7
644.627	133.1
645.038	126
645.448	145.6
645.858	138.6
646.269	135.3
646.679	140.8
647.089	155.7
647.499	152.3
647.909	148.6
648.319	149.1
648.728	147.2
649.138	141.4
649.548	145.5
649.958	147.8
650.367	144.5
650.777	159.9
651.186	161
651.596	145.3
652.005	135.7
652.415	146
652.824	133.9
653.233	124.1
653.642	132.3
654.052	123.1
654.461	117.9
654.87	117.1
655.279	117.6
655.688	107.5
656.096	109.3
656.505	102.4
656.914	117.7
657.323	105.9
657.731	95.2
658.14	106.6
658.548	97.6
658.957	94.9
659.365	93.7
659.774	97.5
660.182	87.9
660.59	97
660.998	84.7
661.407	84.1
661.815	100.3
662.223	86.5
662.631	96.6
663.039	88
663.446	84.3
663.854	80.3
664.262	90.4
664.67	73.5
665.077	77.4
665.485	64.2
665.892	72.6
666.3	45.7
666.707	58.1
667.115	59.7
667.522	46.4
667.929	46.1
668.337	47
668.744	43.4
669.151	34.2
669.558	46.6
669.965	31.8
670.372	30.3
670.779	26.4
671.185	23.8
671.592	30.8
671.999	15
672.405	20.6
672.812	19.2
673.219	15
673.625	27.9
674.032	26
674.438	14
674.844	15.4
675.25	15.2
675.657	13.3
676.063	12.9
676.469	18
676.875	15.1
677.281	19.3
677.687	12.2
678.093	11.6
678.499	12.8
678.904	0.8
679.31	5.9
679.716	6
680.121	-3.5
680.527	0.5
680.932	13.2
681.338	5
681.743	0.4
682.148	-1.4
682.554	0.4
682.959	6.4
683.364	3.1
683.769	8.2
684.174	2.6
684.579	13.3
684.984	1.6
685.389	2.9
685.794	-1.2
686.199	6.4
686.603	6.1
687.008	-0.4
687.413	-4.5
687.817	0.8
688.222	6.8
688.626	-5.2
689.03	3
689.435	0.4
689.839	15.9
690.243	8.5
690.647	2.2
691.051	7.6
691.456	-1
691.859	7.9
692.263	0
692.667	-1.4
693.071	-7.3
693.475	2.3
693.879	-0.6
694.282	2.8
694.686	-0.4
695.089	-0.1
695.493	3.3
695.896	0.6
696.3	-1.7
696.703	10.3
697.106	3.3
697.509	4.7
697.913	-2.5
698.316	8.8
698.719	-2.2
699.122	-6.5
699.525	-9.2
699.928	1.2
700.33	-1.8
700.733	-0.3
701.136	-10.2
701.539	1.3
701.941	-3.7
702.344	6
702.746	-7
703.149	5.5
703.551	-3.3
703.953	-1.8
704.356	2.2
704.758	-8.6
705.16	1.2
705.562	12.1
705.964	3.2
706.366	7.6
706.768	-2
707.17	2.3
707.572	-4
707.973	-5.2
708.375	-5.1
708.777	-2.1
709.178	8.6
709.58	1.4
709.981	-9.2
710.383	6.8
710.784	12.8
711.186	2.7
711.587	-0.6
711.988	0.2
712.389	1.3
712.79	7.4
713.191	6.7
713.592	3.9
713.993	8.9
714.394	2.9
714.795	-2.4
715.196	-3.7
715.596	-1.8
715.997	-2.5
716.398	-1.9
716.798	7.3
717.199	-7.6
717.599	2.8
718	3.3
718.4	2.7
718.8	3.9
719.2	0.9
719.6	-2.8
720.001	-5
720.401	-3.2
720.801	3.4
721.201	-0.8
721.6	3
722	-1.6
722.4	-5
722.8	3.6
723.199	-3
723.599	9.8
723.998	0.5
724.398	3.2
724.797	-4.1
725.197	-4.2
725.596	-8.6
725.995	-2.5
726.394	1
726.794	-0.7
727.193	2.1
727.592	-6.2
727.991	5.2
728.39	2.5
728.789	3.8
729.187	0
729.586	-4
729.985	5.8
730.383	2
730.782	6
731.181	2.8
731.579	-0.1
731.977	-0.4
732.376	-2
732.774	-1.4
733.172	2.1
733.571	1.3
733.969	2.5
734.367	3.9
734.765	5.8
735.163	-2.5
735.561	2.6
735.959	10
736.356	4.6
736.754	12.2
737.152	3.4
737.55	2.8
737.947	6.2
738.345	21.4
738.742	18.6
739.14	14.1
739.537	3.3
739.934	21.5
740.331	9
740.729	18
741.126	21.3
741.523	16.6
741.92	8.4
742.317	9
742.714	17
743.111	5.1
743.507	10.9
743.904	8.4
744.301	21.7
744.697	14.3
745.094	10.9
745.491	10.4
745.887	15.1
746.283	20.6
746.68	21.5
747.076	19.9
747.472	20.9
747.869	20.2
748.265	28
748.661	22.9
749.057	20.6
749.453	18.6
749.849	29.2
750.244	22.3
750.64	31.8
751.036	37.4
751.432	27.3
751.827	31.5
752.223	32.4
752.618	27.4
753.014	22.2
753.409	29.3
753.805	32.5
754.2	23.2
754.595	21.7
754.99	29.5
755.385	25.5
755.78	26.5
756.175	22
756.57	22.4
756.965	29.9
757.36	24.4
757.755	26
758.15	31.5
758.544	43.9
758.939	54.6
759.334	55.4
759.728	56.9
760.122	68.8
760.517	70.5
760.911	67.9
761.306	67.2
761.7	57.9
762.094	55.5
762.488	55.6
762.882	52.1
763.276	58.4
763.67	54.2
764.064	58.3
764.458	52.2
764.852	63.1
765.245	58.3
765.639	64.7
766.033	72.1
766.426	69.8
766.82	68.1
767.213	72
767.606	73.6
768	71.3
768.393	75.3
768.786	63.8
769.179	67.4
769.572	56.4
769.966	59.8
770.358	55.8
770.751	46.9
771.144	60
771.537	44.3
771.93	48.3
772.323	42.4
772.715	35.3
773.108	37.3
773.5	43.5
773.893	35
774.285	38.9
774.678	39.4
775.07	41.4
775.462	36.6
775.854	24.8
776.247	24.2
776.639	39
777.031	22.6
777.423	28.3
777.815	23.5
778.207	38.9
778.598	12.7
778.99	19.3
779.382	38.9
779.773	43.2
780.165	46.3
780.557	71.2
780.948	60.7
781.339	72.9
781.731	72.9
782.122	71.9
782.513	73.4
782.905	77.5
783.296	78.1
783.687	90.8
784.078	66.3
784.469	71
784.86	59.4
785.251	66.7
785.641	66.3
786.032	72.4
786.423	65
786.813	70.9
787.204	63.3
787.594	72.4
787.985	74.5
788.375	62.8
788.766	52.6
789.156	48.6
789.546	47.1
789.936	40.4
790.326	45.7
790.717	48.6
791.107	42.5
791.497	37.5
791.886	36
792.276	45.4
792.666	25.1
793.056	30.4
793.445	26.2
793.835	25.8
794.225	20.6
794.614	27
795.004	22.7
795.393	24.1
795.782	24.5
796.172	26.4
796.561	40.1
796.95	31.5
797.339	22.8
797.728	29.5
798.117	23.1
798.506	29
798.895	17.2
799.284	22.6
799.673	24.8
800.061	13.7
800.45	17.7
800.839	14.9
801.227	15.5
801.616	15.4
802.004	5.6
802.392	21
802.781	22.2
803.169	14.9
803.557	5.7
803.945	11.1
804.333	2.8
804.721	15.2
805.109	17.3
805.497	5.5
805.885	18.9
806.273	12.3
806.661	11.7
807.048	9.4
807.436	0.9
807.824	0.2
808.211	-0.4
808.599	-5.2
808.986	7.6
809.373	-1.2
809.761	3.2
810.148	7.7
810.535	10
810.922	4.6
811.309	7
811.696	9.8
812.083	6.8
812.47	9.1
812.857	6.3
813.244	0.3
813.631	-5.5
814.017	1.7
814.404	10.4
814.791	18.3
815.177	8.5
815.564	6.8
815.95	9.1
816.336	3.8
816.723	0.5
817.109	7.5
817.495	-0.4
817.881	3.1
818.267	2.6
818.653	5.9
819.039	4.3
819.425	4.1
819.811	10.7
820.197	8.4
820.582	-2
820.968	3.4
821.354	1.7
821.739	-0.1
822.125	-3.4
822.51	-2.8
822.895	6.8
823.281	10.4
823.666	7.6
824.051	5
824.436	-1.4
824.822	5
825.207	-3
825.592	2.8
825.976	8.8
826.361	5.2
826.746	7.2
827.131	-2.5
827.516	-0.2
827.9	9
828.285	-2.2
828.669	-2.6
829.054	6.4
829.438	3.4
829.823	-4.1
830.207	-7.8
830.591	6
830.975	-7.5
831.36	0.6
831.744	2.5
832.128	-0.9
832.512	4
832.895	4.7
833.279	0.4
833.663	4.2
834.047	4.3
834.431	0.8
834.814	6.7
835.198	-5
835.581	0.9
835.965	8
836.348	6
836.731	-2.4
837.115	8.5
837.498	4.5
837.881	10.9
838.264	1.4
838.647	3.1
839.03	5
839.413	-3.2
839.796	2.6
840.179	0.9
840.562	7.2
840.944	-6.2
841.327	-3.6
841.71	7.5
842.092	3.5
842.475	-0.5
842.857	7.8
843.24	4.8
843.622	4.3
844.004	3.5
844.386	1
844.769	-4.6
845.151	3.2
845.533	2.6
845.915	-0.7
846.297	10.8
846.678	2.2
847.06	1.5
847.442	4.2
847.824	-4.4
848.205	7.8
848.587	-3
848.968	3.9
849.35	2.1
849.731	2.9
850.113	3.4
850.494	5
850.875	-2.8
851.256	9.3
851.638	3.3
852.019	5.5
852.4	3.9
852.781	4.7
853.161	10
853.542	-3.4
853.923	1.2
854.304	2.1
854.685	0.8
855.065	9.5
855.446	0.9
855.826	10.2
856.207	-0.2
856.587	7.9
856.967	-5.2
857.348	3.5
857.728	5.7
858.108	5.6
858.488	-1.3
858.868	2.8
859.248	7.7
859.628	0.5
860.008	-6.4
860.388	3.8
860.768	2.1
861.147	-3.4
861.527	4.7
861.907	0.4
862.286	14.7
862.666	11.5
863.045	3.9
863.424	10.1
863.804	-4.4
864.183	3.3
864.562	-3.1
864.941	-1.1
865.32	2.7
865.699	2.3
866.078	4.8
866.457	6.3
866.836	-2.2
867.215	-0.1
867.594	0.5
867.972	1
868.351	0.5
868.729	-1.3
869.108	0.5
869.486	7.2
869.865	5.1
870.243	0.4
870.621	1.9
871	-5.2
871.378	5.9
871.756	4.3
872.134	0.2
872.512	7.3
872.89	7.9
873.268	6.4
873.646	9.9
874.023	-0.8
874.401	-5
874.779	6
875.156	6.8
875.534	-0.9
875.911	4.3
876.289	-7.6
876.666	-2.5
877.043	-3.3
877.421	3.3
877.798	-6.8
878.175	4.7
878.552	-7.6
878.929	0.4
879.306	1.9
879.683	-3.3
880.06	3.9
880.437	6.9
880.813	9.7
881.19	8.7
881.567	13
881.943	3.3
882.32	4.7
882.696	4.5
883.073	5.6
883.449	4.2
883.825	5.5
884.202	-1.9
884.578	-0.5
884.954	7.9
885.33	6.1
885.706	4.7
886.082	-2.7
886.458	6.1
886.834	4.8
887.209	2.4
887.585	8.2
887.961	5.6
888.336	-5.7
888.712	2.5
889.087	-3.5
889.463	5
889.838	2.2
890.213	1.7
890.589	8.9
890.964	3
891.339	8.3
891.714	8.1
892.089	-5.6
892.464	6.8
892.839	3
893.214	0.4
893.589	2
893.963	6.5
894.338	-1.9
894.713	-8.3
895.087	9.7
895.462	1.3
895.836	-5.5
896.211	4.8
896.585	-3.9
896.959	-0.2
897.334	8.7
897.708	7.6
898.082	3.8
898.456	3.1
898.83	1.9
899.204	5.1
899.578	-2.4
899.952	0.7
900.325	6.8
900.699	-8.2
901.073	1.8
901.446	2.2
901.82	6.4
902.193	-1.3
902.567	16.3
902.94	9
903.313	8.9
903.687	-1.1
904.06	2.7
904.433	6.8
904.806	18.6
905.179	11
905.552	15.7
905.925	3.2
906.298	11.3
906.671	10.1
907.043	2.7
907.416	0
907.789	-0.9
908.161	4.1
908.534	10.4
908.906	11.6
909.279	11.7
909.651	15.4
910.023	1.1
910.396	-4.6
910.768	10.3
911.14	1.4
911.512	9.8
911.884	15
912.256	11.3
912.628	1.4
912.999	5.4
913.371	1.5
913.743	13.5
914.115	1.8
914.486	8.5
914.858	8
915.229	9.1
915.601	9.5
915.972	5.1
916.343	9.6
916.715	8.9
917.086	5.6
917.457	9.5
917.828	-2.9
918.199	17.5
918.57	11.3
918.941	-2.6
919.312	8.7
919.682	7.1
920.053	-2.3
920.424	3.5
920.794	2.6
921.165	3.7
921.536	4.8
921.906	13.7
922.276	-1.8
922.647	-2.1
923.017	4.4
923.387	1.1
923.757	5.4
924.127	7.1
924.497	11
924.867	3.7
925.237	10.5
925.607	3.4
925.977	0.5
926.347	-2.7
926.716	6
927.086	3.7
927.456	3.4
927.825	7.6
928.195	-0.3
928.564	15
928.933	9.9
929.303	6.8
929.672	7.7
930.041	7.4
930.41	4.1
930.779	1.6
931.148	25.2
931.517	-0.5
931.886	1.2
932.255	1
932.624	5.4
932.993	11.4
933.361	-0.8
933.73	6.8
934.098	9.9
934.467	7.2
934.835	6.9
935.204	10.2
935.572	17.2
935.94	5.5
936.308	15.8
936.677	6.4
937.045	3.7
937.413	19.2
937.781	11.6
938.149	10.9
938.516	8.4
938.884	19.2
939.252	10.6
939.62	3.1
939.987	9.8
940.355	9.8
940.722	11.2
941.09	9.4
941.457	9.1
941.825	10.2
942.192	8.4
942.559	14.6
942.926	4.7
943.293	10.8
943.66	8.6
944.027	10.2
944.394	13.7
944.761	6.8
945.128	15.2
945.495	13.5
945.861	6.4
946.228	12.1
946.595	12.9
946.961	21.1
947.328	18.7
947.694	5.9
948.06	9.4
948.427	8.9
948.793	4.2
949.159	-1.6
949.525	12.3
949.891	7.3
950.257	2.2
950.623	14.2
950.989	7.2
951.355	5.9
951.721	10.5
952.087	7.2
952.452	7.7
952.818	0.1
953.183	9.4
953.549	8.3
953.914	13.8
954.28	2.8
954.645	2.8
955.01	7
955.375	-4.6
955.741	4.6
956.106	11.2
956.471	3.7
956.836	2.1
957.201	6.8
957.566	5.1
957.93	1.2
958.295	7
958.66	0.2
959.024	11.3
959.389	7
959.753	6
960.118	1.3
960.482	-0.2
960.847	8.2
961.211	-5.3
961.575	7.3
961.939	12.2
962.303	5.5
962.667	4
963.031	-5.5
963.395	5.4
963.759	3.1
964.123	-4.2
964.487	-0.5
964.851	2.2
965.214	0
965.578	6.7
965.941	1.8
966.305	-0.3
966.668	8.4
967.032	-3.7
967.395	-3.3
967.758	10.9
968.121	6.8
968.484	9.2
968.847	2
969.21	6.6
969.573	2.1
969.936	0.3
970.299	-4.2
970.662	6.8
971.025	9.9
971.387	1.3
971.75	13.4
972.112	-0.1
972.475	6.8
972.837	3.5
973.2	10.4
973.562	10.7
973.924	4.1
974.286	4.2
974.649	0
975.011	5.2
975.373	6.6
975.735	-0.5
976.097	6.2
976.458	7.3
976.82	11.1
977.182	8.4
977.544	1
977.905	3.9
978.267	3.4
978.628	7.7
978.99	-4.1
979.351	-1
979.712	-0.2
980.074	10.2
980.435	6.3
980.796	3.8
981.157	8
981.518	-3.1
981.879	-1.7
982.24	-0.3
982.601	0.5
982.962	0.4
983.323	-3.7
983.683	8.1
984.044	-0.6
984.404	10.1
984.765	2.7
985.125	2
985.486	-0.1
985.846	5.4
986.206	1
986.567	-2
986.927	-6.4
987.287	0.1
987.647	-7.5
988.007	-5.8
988.367	-0.3
988.727	-2.4
989.087	-1.5
989.446	1.6
989.806	5.6
990.166	-7.2
990.525	11.7
990.885	-6.1
991.244	5.9
991.604	1.5
991.963	-3.7
992.322	-0.8
992.682	-4.4
993.041	4.4
993.4	-11.4
993.759	2.9
994.118	-3.1
994.477	-1.3
994.836	9.3
995.195	15.4
995.553	2.2
995.912	-1.3
996.271	8.2
996.629	5
996.988	12.3
997.346	-6.1
997.705	-1
998.063	-0.4
998.422	-1.7
998.78	6
999.138	-2.4
999.496	-1.2
999.854	4.6
1000.212	-0.2
1000.57	7.8
1000.928	2.8
1001.286	4.7
1001.644	1.6
1002.001	2.1
1002.359	2.5
1002.717	3.5
1003.074	5
1003.432	-0.8
1003.789	-4.6
1004.147	4.4
1004.504	1.2
1004.861	1.7
1005.218	4.7
1005.576	3.5
1005.933	6.3
1006.29	3.1
1006.647	4.4
1007.004	5.6
1007.36	-2.1
1007.717	3.1
1008.074	9.9
1008.431	6.4
1008.787	-10.8
1009.144	0.6
1009.5	7.1
1009.857	-6.6
1010.213	2.4
1010.569	-0.4
1010.926	6.9
1011.282	8.2
1011.638	4.3
1011.994	3.6
1012.35	-1.8
1012.706	3.4
1013.062	-4.3
1013.418	6.5
1013.774	-3
1014.13	-3.3
1014.485	5.7
1014.841	-2.9
1015.197	0.6
1015.552	-2.4
1015.907	-6.2
1016.263	2
1016.618	-1.5
1016.974	2.9
1017.329	1.8
1017.684	1.8
1018.039	5.7
1018.394	-1.8
1018.749	-9
1019.104	-19.1
1019.459	-1.6
1019.814	-0.5
1020.168	-0.6
1020.523	1.7
1020.878	6
1021.232	-2.6
1021.587	1.3
1021.941	1.5
1022.296	3.8
1022.65	-7.2
1023.004	14.6
1023.359	-8.6
1023.713	1.3
1024.067	-5.6
1024.421	-4.4
1024.775	-2.2
1025.129	2.9
1025.483	6.4
1025.837	-4.2
1026.19	5.1
1026.544	-2.7
1026.898	6.4
1027.251	0.9
1027.605	0.6
1027.958	-7.3
1028.312	6.1
1028.665	-1.5
1029.018	5.9
1029.372	3.4
1029.725	7.3
1030.078	2.2
1030.431	4.4
1030.784	3.8
1031.137	1
1031.49	-3.3
1031.843	4
1032.195	-5.4
1032.548	-8.5
1032.901	3.9
1033.253	2.1
1033.606	-3.2
1033.958	8.5
1034.311	0.5
1034.663	4.2
1035.016	-5
1035.368	-0.4
1035.72	3.9
1036.072	3.3
1036.424	4
1036.776	13.2
1037.128	-0.5
1037.48	-3.3
