Data from 0.80bar_Subt2__0__18-05-05-996.txt Node

Date: Thu Jan 06 18:05:06 CET 2022
User: fsatto
Spectrometer: OFX01956
Trigger mode: 0
Integration Time (sec): 2.000000E-3
Scans to average: 10
Nonlinearity correction enabled: false
Boxcar width: 0
Storing dark spectrum: false
XAxis mode: Wavelengths
Number of Pixels in Spectrum: 2136
>>>>>Begin Spectral Data<<<<<
158.236	-1.2
158.705	-10.9
159.174	-4.6
159.643	-1.6
160.112	1.9
160.582	3.8
161.051	10.6
161.52	-1.6
161.988	1.9
162.457	3.8
162.926	-2.2
163.395	-3.4
163.864	-0.4
164.332	0.5
164.801	-5.4
165.269	-0.4
165.738	-1.5
166.206	-0.8
166.675	0.8
167.143	-3.1
167.612	0.1
168.08	-1.6
168.548	1.7
169.016	6
169.484	-6
169.952	2.8
170.42	3
170.888	2.5
171.356	2.9
171.824	0.7
172.292	-1.2
172.759	4.5
173.227	10.8
173.695	3.3
174.162	6.8
174.63	8
175.097	-2.6
175.565	-4.3
176.032	-1.6
176.499	1
176.967	-4.3
177.434	1
177.901	3.5
178.368	15.5
178.835	-3.4
179.302	5
179.769	5.3
180.236	3.3
180.703	2.9
181.17	2.2
181.637	-3
182.103	5.2
182.57	5.1
183.036	2.9
183.503	8
183.97	5.8
184.436	1.7
184.902	9.4
185.369	-0.1
185.835	5.6
186.301	2.2
186.767	-3.5
187.234	0.6
187.7	1.6
188.166	-2.5
188.632	3.9
189.098	1
189.563	4.1
190.029	5.6
190.495	3.4
190.961	2.1
191.426	-5.3
191.892	0
192.358	-0.5
192.823	-5.6
193.289	11.4
193.754	1.4
194.219	-2.9
194.685	7.3
195.15	3.5
195.615	-2.1
196.08	3.7
196.545	3.5
197.01	3.6
197.475	7.2
197.94	-1.6
198.405	7.3
198.87	1.9
199.335	1
199.8	-3.1
200.264	49
200.729	56.8
201.193	49.8
201.658	50.8
202.122	71.6
202.587	69.8
203.051	65.6
203.516	82.9
203.98	89.7
204.444	96.9
204.908	108.5
205.372	146.8
205.836	161.6
206.3	177.2
206.764	211.2
207.228	234.2
207.692	252.1
208.156	299.2
208.62	348.1
209.083	410.1
209.547	492.8
210.011	608.3
210.474	684.5
210.938	773.6
211.401	866.6
211.864	943.8
212.328	1021.9
212.791	1129.8
213.254	1283.6
213.717	1430.2
214.181	1599.8
214.644	1833.7
215.107	2078.6
215.57	2217.4
216.033	2522.3
216.495	2866.5
216.958	3214.2
217.421	3329.6
217.884	3697
218.346	4110.8
218.809	4326.4
219.272	4385.2
219.734	4239.7
220.196	4044.9
220.659	4075
221.121	4260.4
221.584	4564
222.046	4823.5
222.508	4769.2
222.97	4543.7
223.432	4682
223.894	5059
224.356	5662.3
224.818	5786.8
225.28	5703.5
225.742	5814.2
226.204	6611.6
226.665	7425.1
227.127	7856.3
227.589	7926.7
228.05	7811.8
228.512	7607.5
228.973	7643.8
229.435	7587.2
229.896	7834.8
230.357	8553.4
230.818	9162
231.28	8835.7
231.741	8292.4
232.202	7770.3
232.663	7684.2
233.124	8338.4
233.585	9549.9
234.046	10076.2
234.507	9064.5
234.967	7395.1
235.428	6615.8
235.889	7151.5
236.349	8462.5
236.81	9369
237.271	8891.7
237.731	7327.8
238.191	6380.1
238.652	6717
239.112	8109.3
239.572	9315
240.033	9155.8
240.493	7576.4
240.953	6762.4
241.413	7465.6
241.873	8790.3
242.333	9268.8
242.793	7926.7
243.253	5984.8
243.712	5437.9
244.172	6756.6
244.632	8677.7
245.092	9627.5
245.551	8678.6
246.011	6404.6
246.47	4854.5
246.93	5937.7
247.389	9295.8
247.848	12421.9
248.308	12910.9
248.767	11202.2
249.226	8954.3
249.685	8102
250.144	10029.2
250.603	13572.5
251.062	15323.7
251.521	13917
251.98	11070.6
252.439	8688.6
252.897	8002.5
253.356	9603.4
253.815	11619.1
254.273	12278.5
254.732	11239.9
255.19	8570.3
255.649	6557.6
256.107	6168.8
256.566	6880.9
257.024	8160.2
257.482	8238.1
257.94	7093.6
258.398	6071.3
258.856	5334.1
259.315	5732.4
259.772	6975.1
260.23	8010.7
260.688	7841.7
261.146	6749.9
261.604	5478.5
262.062	5325.8
262.519	6402.6
262.977	7952.9
263.434	8683.4
263.892	8741.5
264.349	8839.8
264.807	9352.7
265.264	9844.5
265.721	10347.2
266.179	10748.6
266.636	10380
267.093	9781.9
267.55	10164.1
268.007	11392.6
268.464	12517.1
268.921	12834
269.378	12349.4
269.835	11720.2
270.291	11353.1
270.748	11015.6
271.205	11139.3
271.661	11017.9
272.118	10909.8
272.574	10863.6
273.031	10873.4
273.487	10427.7
273.944	9696.9
274.4	9649.4
274.856	10008.1
275.312	10212
275.768	10500.6
276.225	10390.1
276.681	9918.4
277.137	9389.9
277.593	9145.3
278.048	9602.2
278.504	10079.8
278.96	10173.2
279.416	9540.2
279.871	8806.2
280.327	8330.2
280.783	8409.4
281.238	8628
281.694	8533.2
282.149	8354.9
282.604	8137.3
283.06	7839.7
283.515	7432.1
283.97	7238.5
284.425	7144.4
284.88	6907
285.335	6635.1
285.79	5985.5
286.245	5421.3
286.7	5382.9
287.155	5585.5
287.61	5651.3
288.064	5807.8
288.519	6157.7
288.974	6161.6
289.428	6021.8
289.883	6012.6
290.337	6190.3
290.792	6566.9
291.246	7358.9
291.7	7801.7
292.155	8039
292.609	8011.9
293.063	7869
293.517	7901.9
293.971	8365.2
294.425	8971.5
294.879	9571
295.333	10064.8
295.787	10127.4
296.241	10090.7
296.694	10345.4
297.148	11031.6
297.602	11910.7
298.055	12560.2
298.509	12856.1
298.962	12411.7
299.416	12456.1
299.869	12605
300.322	12660.6
300.775	12837.2
301.229	12912
301.682	13192.9
302.135	13412.2
302.588	13281.7
303.041	12906.6
303.494	12297.5
303.947	11768.1
304.4	11519.2
304.852	11446.5
305.305	11262.9
305.758	10866
306.21	10170.5
306.663	9739.4
307.115	9652.7
307.568	10026
308.02	10154.3
308.473	10242
308.925	9843.8
309.377	9387.2
309.829	9250.5
310.282	9185.3
310.734	9022.2
311.186	8630.3
311.638	8404.4
312.09	8148.5
312.542	7951.9
312.993	7535.8
313.445	7275.3
313.897	7185
314.349	6969.7
314.8	6871.7
315.252	6656.8
315.703	6552
316.155	6412
316.606	6355.5
317.058	6177.2
317.509	6240.2
317.96	6136.9
318.411	5932.8
318.863	5917.9
319.314	5847.8
319.765	5721.1
320.216	5539.8
320.667	5162.2
321.117	5044.1
321.568	4983.9
322.019	4919.4
322.47	4832.7
322.921	4708.7
323.371	4581.1
323.822	4327.4
324.272	4102
324.723	3944.3
325.173	3727.8
325.623	3519.5
326.074	3330.5
326.524	3260.6
326.974	3820.4
327.424	5602.4
327.874	7168.3
328.325	5682
328.775	3999.4
329.224	3838.3
329.674	3616.7
330.124	3516.6
330.574	3378.5
331.024	3188.5
331.473	3053.1
331.923	2853.5
332.373	2593.3
332.822	2411.8
333.272	2286.9
333.721	2156.4
334.17	2016.3
334.62	1887
335.069	1760.3
335.518	1664.8
335.967	1588.9
336.416	1539.9
336.865	1436.5
337.314	1334.2
337.763	1192.1
338.212	1116.1
338.661	1019.4
339.11	942.4
339.558	864.4
340.007	867.9
340.456	881
340.904	849.8
341.353	790.6
341.801	727.7
342.25	703.9
342.698	631.5
343.146	564.9
343.595	507.7
344.043	477.1
344.491	438
344.939	407.7
345.387	391.1
345.835	373.1
346.283	348.3
346.731	310.3
347.179	304
347.626	275.4
348.074	249.6
348.522	242
348.969	228
349.417	208.5
349.865	202.2
350.312	185.7
350.759	166.9
351.207	148.9
351.654	133.6
352.101	126.1
352.548	117.5
352.996	98.3
353.443	107.6
353.89	98.4
354.337	88.5
354.784	97.8
355.231	82.2
355.677	72.8
356.124	79.9
356.571	74.2
357.018	79
357.464	71.1
357.911	74.4
358.357	65.4
358.804	64.9
359.25	71.9
359.696	53.6
360.143	47
360.589	52
361.035	42.7
361.481	45.5
361.927	44.4
362.373	44.8
362.819	41.2
363.265	44.1
363.711	36.1
364.157	35
364.603	28.5
365.048	37.5
365.494	36.7
365.94	27.6
366.385	23.8
366.831	31.1
367.276	17.5
367.722	10.5
368.167	14.1
368.612	13.5
369.057	12.6
369.503	14
369.948	8.3
370.393	18
370.838	14
371.283	4
371.728	14.4
372.173	8.3
372.617	20.2
373.062	-0.4
373.507	5.7
373.951	13.8
374.396	9.4
374.841	8.2
375.285	14.1
375.729	7.3
376.174	5.5
376.618	16.7
377.062	2.7
377.507	9.4
377.951	22.9
378.395	3.6
378.839	9
379.283	8.8
379.727	8.1
380.171	5.5
380.615	8.1
381.059	14.5
381.502	2.8
381.946	2.6
382.39	15.7
382.833	5.9
383.277	11.1
383.72	10.6
384.164	15.4
384.607	12.5
385.05	9.5
385.494	7.6
385.937	9.6
386.38	5.2
386.823	0.9
387.266	12.4
387.709	8.3
388.152	21.2
388.595	3.9
389.038	-3.7
389.481	0.2
389.923	8.1
390.366	5
390.809	6.9
391.251	9.7
391.694	9
392.136	4.4
392.579	7
393.021	1.3
393.463	13.2
393.906	9.7
394.348	14.1
394.79	4.6
395.232	3.3
395.674	13.7
396.116	5.8
396.558	6.2
397	4.2
397.442	0.4
397.884	9.8
398.325	-0.4
398.767	3.8
399.209	6.9
399.65	9.3
400.092	9.3
400.533	12.1
400.974	19.5
401.416	13
401.857	6.6
402.298	17.5
402.74	11
403.181	10.2
403.622	6
404.063	7.4
404.504	4.8
404.945	8.5
405.386	3.5
405.826	14.9
406.267	2.1
406.708	2.5
407.149	7.6
407.589	9.4
408.03	7.4
408.47	10.7
408.911	9.2
409.351	2
409.791	6.9
410.232	4.9
410.672	5.6
411.112	1.3
411.552	6.9
411.992	11.9
412.432	6.6
412.872	8.4
413.312	14.7
413.752	15.8
414.192	-0.3
414.632	6.9
415.071	13.8
415.511	6
415.951	-0.1
416.39	4.8
416.83	12.4
417.269	13.3
417.708	8.2
418.148	9.3
418.587	8.5
419.026	4.9
419.465	4.1
419.904	14.1
420.344	13.6
420.783	6.4
421.221	9.4
421.66	2.9
422.099	0.5
422.538	14
422.977	7.3
423.415	12
423.854	16.5
424.293	9.7
424.731	3.9
425.17	9
425.608	5.4
426.046	16.6
426.485	13.4
426.923	5
427.361	5.2
427.799	3.6
428.237	8.4
428.675	12.8
429.113	2.7
429.551	9.8
429.989	9.4
430.427	10.4
430.865	10.6
431.303	5.6
431.74	6.8
432.178	20.3
432.615	0.4
433.053	14
433.49	4.3
433.928	6
434.365	5.1
434.802	-3.9
435.24	2.9
435.677	5
436.114	9.8
436.551	4.6
436.988	7.4
437.425	6.9
437.862	7.9
438.299	8.2
438.736	12.1
439.172	1.1
439.609	-0.1
440.046	6
440.482	13.2
440.919	7.3
441.355	0.8
441.792	1
442.228	9.3
442.665	3.6
443.101	9.4
443.537	5.3
443.973	5.5
444.409	6.2
444.845	10.2
445.281	7.4
445.717	11.4
446.153	20.4
446.589	6.1
447.025	-3.5
447.461	10.9
447.896	3.1
448.332	7
448.768	9.7
449.203	5.8
449.639	13.1
450.074	3.2
450.509	-1.2
450.945	9.3
451.38	8.7
451.815	13.5
452.25	12
452.685	13.1
453.12	11.3
453.555	-1
453.99	6.5
454.425	5.8
454.86	5.9
455.295	-3.1
455.73	11.9
456.164	15.3
456.599	7.1
457.033	11.5
457.468	6.7
457.902	3.3
458.337	-0.2
458.771	7.2
459.205	3
459.64	7.1
460.074	6.5
460.508	9.3
460.942	10
461.376	-10
461.81	8.6
462.244	6.2
462.678	15.8
463.112	0.5
463.545	4.5
463.979	4
464.413	0.5
464.846	4.1
465.28	10.3
465.713	18.7
466.147	10.1
466.58	5.9
467.014	15.9
467.447	4.8
467.88	15
468.313	7.8
468.746	17.3
469.179	2.4
469.612	5.4
470.045	3.4
470.478	7
470.911	10.2
471.344	11.2
471.777	9.5
472.209	8.6
472.642	15.8
473.074	9.1
473.507	15.1
473.939	18.5
474.372	17.5
474.804	9.2
475.236	23.5
475.669	15.1
476.101	11.5
476.533	15.7
476.965	10.9
477.397	2.6
477.829	11.6
478.261	17.7
478.693	9.3
479.125	18.8
479.557	12.6
479.988	25.6
480.42	17.9
480.852	21.3
481.283	21.3
481.715	6.6
482.146	15.1
482.577	9.5
483.009	29.1
483.44	24.2
483.871	14.2
484.302	17.6
484.734	22.9
485.165	19.9
485.596	16.8
486.027	12.4
486.457	15.3
486.888	18.8
487.319	7.9
487.75	9.2
488.181	14
488.611	15.1
489.042	7.8
489.472	13.8
489.903	11.2
490.333	7.4
490.764	11
491.194	13.3
491.624	13.9
492.054	12.9
492.484	9.3
492.915	16.3
493.345	11
493.775	10.7
494.204	11.9
494.634	10.2
495.064	13.5
495.494	15.6
495.924	6
496.353	17
496.783	12.1
497.212	16.1
497.642	14.9
498.071	14.1
498.501	17.6
498.93	8.3
499.359	15.1
499.789	3.2
500.218	17.1
500.647	11.3
501.076	14.8
501.505	5.6
501.934	12.9
502.363	8.4
502.792	7.1
503.221	10.5
503.649	9.4
504.078	2.6
504.507	5.5
504.935	2.3
505.364	2.5
505.792	2.4
506.221	6.1
506.649	8.5
507.077	4.4
507.506	14.1
507.934	12.8
508.362	5.8
508.79	4.8
509.218	13.2
509.646	8.7
510.074	13
510.502	14.9
510.93	5.8
511.357	16.7
511.785	7
512.213	5.2
512.64	5
513.068	8.9
513.496	13.6
513.923	3.4
514.35	9
514.778	10.3
515.205	7.2
515.632	8.8
516.059	6.2
516.486	5.2
516.914	14.3
517.341	9.1
517.768	5.8
518.194	-0.3
518.621	9.8
519.048	10.3
519.475	9.2
519.902	-5.6
520.328	5.4
520.755	4.1
521.181	9.9
521.608	8.8
522.034	5.4
522.461	6.7
522.887	10.9
523.313	3.9
523.739	13.5
524.165	15.4
524.592	7.7
525.018	15.3
525.444	3.1
525.869	5
526.295	-0.3
526.721	4.5
527.147	6
527.573	13.3
527.998	4.8
528.424	7.7
528.849	6.3
529.275	10.6
529.7	9.5
530.126	3.5
530.551	-1
530.976	8.1
531.402	3.5
531.827	8.2
532.252	5.4
532.677	10.6
533.102	-2.4
533.527	11.2
533.952	7.3
534.377	5.6
534.801	9.9
535.226	1.8
535.651	13.3
536.076	2.4
536.5	2.9
536.925	-1.4
537.349	-3.4
537.773	4.3
538.198	6.3
538.622	27.6
539.046	7.5
539.471	16.1
539.895	4.7
540.319	12.4
540.743	8.8
541.167	2.9
541.591	23.9
542.015	17
542.438	9.8
542.862	10.3
543.286	12.4
543.71	15
544.133	10
544.557	20.1
544.98	11.6
545.404	22.6
545.827	5.6
546.25	19.6
546.674	17.2
547.097	15.8
547.52	9.2
547.943	9.4
548.366	18.7
548.789	12.4
549.212	14.6
549.635	14.1
550.058	15.6
550.481	13.6
550.903	17.8
551.326	16.4
551.749	10.2
552.171	15.8
552.594	22.6
553.016	18.7
553.438	11
553.861	11
554.283	4.7
554.705	8.7
555.128	6.1
555.55	16.8
555.972	17.5
556.394	12.3
556.816	8
557.238	8
557.659	8.1
558.081	-0.1
558.503	10.5
558.925	30
559.346	10.5
559.768	4.9
560.189	7.9
560.611	7.7
561.032	6.6
561.454	3
561.875	11.4
562.296	2.4
562.718	13.7
563.139	17.3
563.56	6.4
563.981	17.6
564.402	6.7
564.823	16.2
565.244	-1.8
565.664	5.8
566.085	13.6
566.506	4
566.927	0
567.347	8.5
567.768	11.9
568.188	8.6
568.609	8.7
569.029	9.4
569.449	1.4
569.87	4
570.29	3.2
570.71	-2
571.13	1.7
571.55	6.4
571.97	3.8
572.39	4.8
572.81	5.7
573.23	4.8
573.65	6.4
574.069	3.2
574.489	5.9
574.909	0.7
575.328	-6.9
575.748	8.2
576.167	14.7
576.587	6.5
577.006	1.3
577.425	8.4
577.844	6
578.264	3.4
578.683	10.4
579.102	2
579.521	1.5
579.94	2.1
580.359	0.1
580.778	2.1
581.196	0.9
581.615	4.3
582.034	7.2
582.452	4.8
582.871	-1.6
583.29	2
583.708	13.6
584.126	18.2
584.545	3.8
584.963	8
585.381	10.7
585.8	-2.5
586.218	7.6
586.636	-3.9
587.054	-3.5
587.472	3.6
587.89	5.5
588.308	14.5
588.725	8.2
589.143	11.2
589.561	-0.6
589.979	-1.8
590.396	-6
590.814	10.5
591.231	5.4
591.649	5.6
592.066	5
592.483	-8.5
592.901	8.8
593.318	1.2
593.735	5.1
594.152	11.2
594.569	-3.8
594.986	5
595.403	1.1
595.82	4.3
596.237	5.7
596.654	5.5
597.07	0.8
597.487	-6.5
597.904	3.5
598.32	10.4
598.737	12.3
599.153	-6.3
599.57	5.2
599.986	8.4
600.402	1.6
600.818	-3.1
601.235	3.5
601.651	-7.6
602.067	2.4
602.483	-1.7
602.899	6
603.315	-6
603.73	12.3
604.146	-0.2
604.562	-2.7
604.978	-4.6
605.393	-10.1
605.809	3
606.224	2.2
606.64	-8.2
607.055	10.1
607.471	8.9
607.886	6.3
608.301	-4.3
608.716	2
609.131	0
609.547	0.4
609.962	7.4
610.377	5.8
610.791	12
611.206	8.8
611.621	7.2
612.036	-0.2
612.451	12.8
612.865	4.3
613.28	12.4
613.694	6.6
614.109	2.4
614.523	4.8
614.938	7.4
615.352	3.7
615.766	9.7
616.18	16.7
616.595	11.6
617.009	9.5
617.423	14.2
617.837	13
618.251	16.1
618.664	8.6
619.078	23.9
619.492	18.9
619.906	24.2
620.319	11.6
620.733	21.7
621.146	19.1
621.56	18.2
621.973	22.6
622.387	20.6
622.8	26.4
623.213	27.7
623.627	35
624.04	24
624.453	35.2
624.866	24.4
625.279	32.8
625.692	27.4
626.105	41.1
626.518	32.6
626.93	41.6
627.343	53.3
627.756	43.9
628.168	42.9
628.581	51.7
628.993	53.7
629.406	57.9
629.818	48.5
630.231	68.7
630.643	76.2
631.055	64.8
631.467	76.2
631.879	74.7
632.291	80.3
632.703	92.3
633.115	100.7
633.527	109.6
633.939	111.9
634.351	121.1
634.763	137.8
635.174	137.5
635.586	147.4
635.997	147.5
636.409	145.2
636.82	144.7
637.232	158.1
637.643	146.4
638.054	152.1
638.466	156.2
638.877	152.6
639.288	153.2
639.699	157.7
640.11	163
640.521	166.3
640.932	164.5
641.343	156.9
641.753	162.2
642.164	144.5
642.575	159.6
642.986	144.3
643.396	168.3
643.807	170.6
644.217	186.4
644.627	173.1
645.038	173.6
645.448	182.2
645.858	185.1
646.269	175.9
646.679	181.2
647.089	183.4
647.499	171.2
647.909	175.5
648.319	175.6
648.728	176.6
649.138	174.7
649.548	173.7
649.958	182.7
650.367	156.6
650.777	176.9
651.186	165.7
651.596	164.9
652.005	149.8
652.415	158.8
652.824	139.4
653.233	139.7
653.642	153.2
654.052	137.4
654.461	133.3
654.87	126.6
655.279	117.1
655.688	105.8
656.096	117
656.505	122.2
656.914	119.5
657.323	113.8
657.731	112.8
658.14	120.8
658.548	112.6
658.957	109.9
659.365	108.7
659.774	116.5
660.182	103.2
660.59	103.8
660.998	104.2
661.407	101.6
661.815	95.9
662.223	99.3
662.631	106.8
663.039	101.1
663.446	93.9
663.854	101.3
664.262	96.7
664.67	90.2
665.077	88.4
665.485	82
665.892	78.1
666.3	62.3
666.707	58.5
667.115	67.1
667.522	58.3
667.929	47.3
668.337	43.7
668.744	54.5
669.151	43.9
669.558	53.5
669.965	28.1
670.372	36.8
670.779	34.5
671.185	32.2
671.592	39.3
671.999	20.2
672.405	16.3
672.812	24.1
673.219	21
673.625	31.7
674.032	31.9
674.438	12
674.844	10
675.25	16.1
675.657	20
676.063	16.1
676.469	12.2
676.875	9.6
677.281	17.8
677.687	10.3
678.093	7.8
678.499	7.6
678.904	8.4
679.31	8.5
679.716	4.8
680.121	2.1
680.527	3.1
680.932	7.2
681.338	6.7
681.743	-0.5
682.148	0.2
682.554	8.3
682.959	7.8
683.364	2.2
683.769	11.3
684.174	5.9
684.579	13.3
684.984	6.8
685.389	11.2
685.794	2.6
686.199	5.6
686.603	-0.7
687.008	8.2
687.413	-1.9
687.817	-6
688.222	10.2
688.626	4.1
689.03	11.2
689.435	3.9
689.839	12.2
690.243	2.8
690.647	15.8
691.051	13.7
691.456	0.8
691.859	5.8
692.263	-3.7
692.667	12.6
693.071	0.1
693.475	6.5
693.879	19.1
694.282	17.4
694.686	9.8
695.089	11.7
695.493	8.6
695.896	8.9
696.3	3.2
696.703	13.3
697.106	7.9
697.509	11.3
697.913	3.9
698.316	0.1
698.719	5.5
699.122	2.5
699.525	-3.7
699.928	2.1
700.33	9
700.733	4.5
701.136	-7.9
701.539	-2.6
701.941	1.7
702.344	-2.4
702.746	6.5
703.149	0.4
703.551	1.4
703.953	2.9
704.356	10.9
704.758	1.1
705.16	1.8
705.562	12.8
705.964	2.8
706.366	7.7
706.768	8.2
707.17	1.2
707.572	6
707.973	-8
708.375	-1.2
708.777	0.7
709.178	6.1
709.58	0.6
709.981	-1.6
710.383	8.6
710.784	12
711.186	3.8
711.587	-2.7
711.988	1.3
712.389	0.5
712.79	14.7
713.191	4.6
713.592	6.4
713.993	5.8
714.394	2.6
714.795	0.6
715.196	4.4
715.596	-5.4
715.997	1.4
716.398	-5.3
716.798	1.4
717.199	-2.3
717.599	4.1
718	3.8
718.4	6.6
718.8	11.1
719.2	1
719.6	9.3
720.001	1
720.401	1.1
720.801	3.3
721.201	8.7
721.6	-2.1
722	2.4
722.4	2.1
722.8	8.6
723.199	-3.8
723.599	11
723.998	-0.3
724.398	7
724.797	1.6
725.197	2.1
725.596	-5.4
725.995	4.3
726.394	7.8
726.794	6.2
727.193	6.6
727.592	-0.4
727.991	3.4
728.39	3.8
728.789	9.1
729.187	3.4
729.586	-0.2
729.985	7.7
730.383	5
730.782	4.7
731.181	8.8
731.579	8.5
731.977	4.8
732.376	5.2
732.774	1.3
733.172	0
733.571	4.2
733.969	-4.8
734.367	4.3
734.765	2.2
735.163	0.7
735.561	0.5
735.959	1.1
736.356	6
736.754	6.5
737.152	3
737.55	3.7
737.947	7.1
738.345	10.4
738.742	4.6
739.14	0.9
739.537	-2.6
739.934	11.4
740.331	10.5
740.729	8.4
741.126	14.7
741.523	5.6
741.92	10.9
742.317	9.8
742.714	12.1
743.111	-1
743.507	6.4
743.904	12.2
744.301	10.2
744.697	13.1
745.094	6.5
745.491	-1.6
745.887	15.5
746.283	12.8
746.68	9.5
747.076	12.9
747.472	21.4
747.869	23.1
748.265	25.8
748.661	26.2
749.057	20.7
749.453	15.2
749.849	20.5
750.244	25.9
750.64	33.6
751.036	29.8
751.432	26.8
751.827	29.2
752.223	28
752.618	24.2
753.014	24
753.409	32.3
753.805	27.1
754.2	11.3
754.595	25
754.99	23
755.385	25.1
755.78	16.3
756.175	24.4
756.57	9.2
756.965	26.6
757.36	16.2
757.755	19.8
758.15	33.8
758.544	29.3
758.939	45.2
759.334	46.3
759.728	39.1
760.122	57.4
760.517	50.3
760.911	63.1
761.306	62.4
761.7	61.6
762.094	47.1
762.488	63.2
762.882	55.9
763.276	58.4
763.67	57.6
764.064	59.3
764.458	59.1
764.852	55.4
765.245	60.2
765.639	63.1
766.033	63.4
766.426	80.9
766.82	71.8
767.213	62.8
767.606	76.2
768	70.9
768.393	80.8
768.786	67.9
769.179	69.9
769.572	66.4
769.966	58.9
770.358	55.3
770.751	52.9
771.144	51.3
771.537	48.1
771.93	49.7
772.323	49.7
772.715	54.6
773.108	45.9
773.5	49.4
773.893	49.8
774.285	48.6
774.678	56.3
775.07	63.6
775.462	49.3
775.854	34.5
776.247	39.1
776.639	43.4
777.031	39.7
777.423	32
777.815	35.5
778.207	42.3
778.598	26
778.99	33
779.382	39.6
779.773	53.3
780.165	56.5
780.557	75.1
780.948	69.6
781.339	83.1
781.731	82.1
782.122	86.4
782.513	78.6
782.905	77.6
783.296	89.6
783.687	96
784.078	75.7
784.469	71.9
784.86	66.2
785.251	76
785.641	82.8
786.032	76.7
786.423	76.3
786.813	85.8
787.204	73.9
787.594	82.3
787.985	84.4
788.375	61.2
788.766	67
789.156	64.8
789.546	53.4
789.936	48
790.326	48.6
790.717	51
791.107	55.8
791.497	41.9
791.886	40
792.276	46.5
792.666	31.9
793.056	36.2
793.445	28
793.835	31.5
794.225	25
794.614	34.3
795.004	14.1
795.393	23
795.782	22.3
796.172	28.1
796.561	32.9
796.95	26.7
797.339	20.4
797.728	27.8
798.117	19.3
798.506	31.1
798.895	22.5
799.284	22.6
799.673	27.7
800.061	14.1
800.45	20.6
800.839	16.8
801.227	13.2
801.616	12.4
802.004	11.3
802.392	15.8
802.781	16.9
803.169	7.2
803.557	-1.7
803.945	8.8
804.333	6.4
804.721	6.3
805.109	11.5
805.497	6.2
805.885	11.9
806.273	18.6
806.661	13.5
807.048	12
807.436	5.1
807.824	2.1
808.211	2.6
808.599	2.7
808.986	6.4
809.373	2.5
809.761	6.4
810.148	15.6
810.535	12.1
810.922	7.4
811.309	12.1
811.696	5.1
812.083	5.5
812.47	8.9
812.857	12
813.244	-5.2
813.631	-8.3
814.017	-2.2
814.404	8.1
814.791	13.3
815.177	8.6
815.564	13.2
815.95	8.9
816.336	5.4
816.723	1.8
817.109	1.6
817.495	5.6
817.881	6.9
818.267	5.7
818.653	6.3
819.039	1.6
819.425	9.4
819.811	12.7
820.197	7.3
820.582	1.4
820.968	2.1
821.354	7.2
821.739	-0.4
822.125	6.8
822.51	-1.5
822.895	8
823.281	0.1
823.666	6.3
824.051	11.9
824.436	4
824.822	-8.8
825.207	-1.7
825.592	-10.1
825.976	8.4
826.361	6.3
826.746	2
827.131	-0.1
827.516	5.5
827.9	4.6
828.285	2.8
828.669	-1.6
829.054	6.4
829.438	4.2
829.823	8.1
830.207	-1.5
830.591	18
830.975	4.1
831.36	-0.4
831.744	6
832.128	-4.2
832.512	2.7
832.895	9
833.279	1.3
833.663	10.2
834.047	1.3
834.431	-4.3
834.814	4.5
835.198	-10.1
835.581	3
835.965	-1.7
836.348	8.4
836.731	2.1
837.115	13.6
837.498	2.5
837.881	6.6
838.264	7.8
838.647	7
839.03	5.6
839.413	4.1
839.796	-2.5
840.179	2.6
840.562	10.5
840.944	-3
841.327	-6
841.71	4.5
842.092	4.3
842.475	1.8
842.857	6.7
843.24	10.9
843.622	6.9
844.004	11.6
844.386	5
844.769	3
845.151	-1.6
845.533	1.7
845.915	1.9
846.297	5.8
846.678	-1.4
847.06	12.4
847.442	13.5
847.824	9.2
848.205	5.5
848.587	-0.5
848.968	7.3
849.35	-0.9
849.731	1.3
850.113	2
850.494	0.1
850.875	-2.1
851.256	9
851.638	7.1
852.019	7.6
852.4	3.2
852.781	-2.5
853.161	4
853.542	-3.2
853.923	3.1
854.304	2.1
854.685	3.8
855.065	9.3
855.446	4.9
855.826	4.6
856.207	3.7
856.587	7.4
856.967	11.9
857.348	5.2
857.728	5.5
858.108	7.5
858.488	-3.7
858.868	-1.6
859.248	3.9
859.628	-1.7
860.008	2.3
860.388	12.9
860.768	2.8
861.147	1.4
861.527	4.9
861.907	5.2
862.286	5.9
862.666	11
863.045	4
863.424	11.1
863.804	2.3
864.183	7.3
864.562	5.1
864.941	5
865.32	2.2
865.699	0.8
866.078	5
866.457	5
866.836	0.1
867.215	0.5
867.594	8.5
867.972	-2.4
868.351	10.2
868.729	-1.3
869.108	5.3
869.486	11.8
869.865	2.1
870.243	9.7
870.621	5.8
871	5.4
871.378	10.5
871.756	10.3
872.134	5.8
872.512	9.2
872.89	9.8
873.268	12.4
873.646	6.5
874.023	-3.8
874.401	10
874.779	4.9
875.156	3.7
875.534	8.8
875.911	4.7
876.289	2.6
876.666	-3.4
877.043	6.8
877.421	4.4
877.798	-1.8
878.175	9.8
878.552	-1.6
878.929	-1.6
879.306	-0.8
879.683	-0.3
880.06	7.7
880.437	5.8
880.813	8
881.19	0.8
881.567	13.7
881.943	-3.1
882.32	5
882.696	7.1
883.073	8.1
883.449	9.3
883.825	2.5
884.202	6.1
884.578	3.4
884.954	10.4
885.33	9.6
885.706	4.7
886.082	5.6
886.458	9
886.834	14.8
887.209	12.2
887.585	6.7
887.961	11.1
888.336	16.8
888.712	3.4
889.087	-3.1
889.463	9
889.838	1.4
890.213	8.6
890.589	4.3
890.964	3.3
891.339	12.8
891.714	6.9
892.089	2.4
892.464	6.4
892.839	3
893.214	7.2
893.589	12.8
893.963	8.4
894.338	3.8
894.713	2.1
895.087	8.1
895.462	9
895.836	-10.1
896.211	-6.3
896.585	4.2
896.959	5.9
897.334	6.3
897.708	8.6
898.082	7.3
898.456	4.4
898.83	9.8
899.204	17.1
899.578	4.4
899.952	7.3
900.325	6.7
900.699	-12.7
901.073	6.5
901.446	4.6
901.82	-4.5
902.193	11.9
902.567	7.4
902.94	9.8
903.313	6.8
903.687	-5.5
904.06	4.5
904.433	6.7
904.806	11.4
905.179	5
905.552	7.9
905.925	5.6
906.298	7.2
906.671	7.1
907.043	7.8
907.416	6.3
907.789	1.4
908.161	1.7
908.534	20.8
908.906	7.4
909.279	14.6
909.651	6
910.023	-2
910.396	2.6
910.768	9.5
911.14	4.1
911.512	11.9
911.884	11.1
912.256	6.8
912.628	11
912.999	11.1
913.371	2.8
913.743	12.7
914.115	13.2
914.486	8.2
914.858	5.8
915.229	8.5
915.601	12.2
915.972	4.3
916.343	11
916.715	6.7
917.086	7.2
917.457	9.7
917.828	2
918.199	14.4
918.57	9.4
918.941	-6.5
919.312	5
919.682	9.2
920.053	4.6
920.424	1.7
920.794	12.8
921.165	-4.7
921.536	9.6
921.906	18.5
922.276	11.7
922.647	6.6
923.017	9.6
923.387	6.8
923.757	8.1
924.127	17.7
924.497	10.2
924.867	7.2
925.237	7.6
925.607	8.7
925.977	11
926.347	0
926.716	15.3
927.086	11.8
927.456	5.1
927.825	7.6
928.195	9.3
928.564	14.4
928.933	9.8
929.303	10.5
929.672	9.7
930.041	12.9
930.41	13.1
930.779	1.7
931.148	13.7
931.517	15.8
931.886	12.5
932.255	3.3
932.624	9.4
932.993	15.4
933.361	13.3
933.73	15
934.098	13.6
934.467	11.6
934.835	14.2
935.204	14.2
935.572	3.9
935.94	14.4
936.308	9.9
936.677	9
937.045	9.9
937.413	23.3
937.781	20.1
938.149	13.1
938.516	15.5
938.884	25.2
939.252	17.1
939.62	19
939.987	13.7
940.355	15.7
940.722	9.6
941.09	22.4
941.457	11.1
941.825	11.1
942.192	11.4
942.559	14.8
942.926	8.2
943.293	9.3
943.66	12.9
944.027	7
944.394	10.6
944.761	12
945.128	17.4
945.495	12.6
945.861	5.6
946.228	14.5
946.595	15
946.961	24.8
947.328	16
947.694	8.5
948.06	16.2
948.427	18.8
948.793	11
949.159	1.6
949.525	10.4
949.891	9.7
950.257	4.7
950.623	5.9
950.989	5
951.355	7
951.721	10.8
952.087	2.9
952.452	7.1
952.818	5.5
953.183	2.2
953.549	5.8
953.914	7
954.28	7.9
954.645	2.2
955.01	10.8
955.375	5.9
955.741	-3.9
956.106	9
956.471	-2
956.836	0.1
957.201	15.8
957.566	4.6
957.93	7.9
958.295	18.8
958.66	4.5
959.024	21.8
959.389	3.8
959.753	6.8
960.118	3.5
960.482	-2.2
960.847	2.9
961.211	3.4
961.575	5.5
961.939	7.1
962.303	4.3
962.667	3.8
963.031	6.1
963.395	7.5
963.759	10.5
964.123	1.3
964.487	-4.9
964.851	3.2
965.214	9.3
965.578	4.1
965.941	3.4
966.305	2.2
966.668	4.1
967.032	6.6
967.395	0.9
967.758	5.3
968.121	9.4
968.484	6.2
968.847	3.2
969.21	5.7
969.573	6.4
969.936	5.5
970.299	1.4
970.662	14.3
971.025	9.7
971.387	8.1
971.75	10.8
972.112	3.5
972.475	13.2
972.837	7
973.2	9.1
973.562	3.3
973.924	7.4
974.286	2.3
974.649	3.7
975.011	2.3
975.373	1.7
975.735	3.8
976.097	5.5
976.458	-4.2
976.82	14.6
977.182	5.4
977.544	2.3
977.905	3.9
978.267	7.7
978.628	2.3
978.99	3.8
979.351	6.7
979.712	8.7
980.074	10.6
980.435	15.6
980.796	5.6
981.157	1.4
981.518	16.6
981.879	3.5
982.24	6.1
982.601	16.9
982.962	-0.8
983.323	-7.6
983.683	4.3
984.044	-1.4
984.404	15.8
984.765	2.7
985.125	3.4
985.486	1.5
985.846	-0.7
986.206	0.5
986.567	-0.2
986.927	0.8
987.287	6.1
987.647	-6.2
988.007	3.4
988.367	2.2
988.727	3.2
989.087	7.2
989.446	2.4
989.806	7.6
990.166	0.4
990.525	7.7
990.885	-1.3
991.244	-4
991.604	10.1
991.963	10.7
992.322	2.7
992.682	1.2
993.041	6.7
993.4	-0.2
993.759	5.2
994.118	1.6
994.477	2.4
994.836	8.8
995.195	20.1
995.553	4.7
995.912	-2.9
996.271	7.7
996.629	4.1
996.988	10.2
997.346	4.4
997.705	6.3
998.063	8.6
998.422	3.5
998.78	11.4
999.138	0.3
999.496	2
999.854	2.9
1000.212	1.4
1000.57	4
1000.928	1.2
1001.286	-2.5
1001.644	5.2
1002.001	2.2
1002.359	7
1002.717	1.7
1003.074	3.2
1003.432	3.9
1003.789	-0.4
1004.147	7.4
1004.504	-2.1
1004.861	5.8
1005.218	-0.5
1005.576	10.4
1005.933	10
1006.29	-1.9
1006.647	6.2
1007.004	2.1
1007.36	6.8
1007.717	6.1
1008.074	16.2
1008.431	6.8
1008.787	-2.1
1009.144	2.6
1009.5	-0.4
1009.857	-3.3
1010.213	2.9
1010.569	2.1
1010.926	-4
1011.282	2.8
1011.638	8.7
1011.994	1.9
1012.35	7.6
1012.706	6.2
1013.062	6.6
1013.418	6.2
1013.774	3.5
1014.13	1.3
1014.485	7.6
1014.841	-0.6
1015.197	1.5
1015.552	4.7
1015.907	-4
1016.263	2.8
1016.618	-0.1
1016.974	10.1
1017.329	-2
1017.684	1.3
1018.039	4
1018.394	-7.7
1018.749	-4.7
1019.104	-12.5
1019.459	7.7
1019.814	5
1020.168	1.6
1020.523	4.3
1020.878	8.9
1021.232	-3.8
1021.587	4.1
1021.941	1.5
1022.296	4.7
1022.65	1
1023.004	16.6
1023.359	2
1023.713	4.7
1024.067	-3.3
1024.421	2.2
1024.775	-3.4
1025.129	1.8
1025.483	5.6
1025.837	4.7
1026.19	4.2
1026.544	-5.3
1026.898	-12.5
1027.251	7.8
1027.605	6.1
1027.958	-2.9
1028.312	7.2
1028.665	4.1
1029.018	5.3
1029.372	2.1
1029.725	13.4
1030.078	6.1
1030.431	9
1030.784	5.3
1031.137	-0.3
1031.49	3.1
1031.843	11.1
1032.195	4.7
1032.548	0.1
1032.901	0.1
1033.253	10.9
1033.606	6.3
1033.958	14.2
1034.311	3.7
1034.663	6.4
1035.016	2.7
1035.368	-5.6
1035.72	3.5
1036.072	5.8
1036.424	7.4
1036.776	14.4
1037.128	1.7
1037.48	4.4
