Data from 1.00bar_Subt2__0__18-05-23-961.txt Node

Date: Thu Jan 06 18:05:23 CET 2022
User: fsatto
Spectrometer: OFX01956
Trigger mode: 0
Integration Time (sec): 2.000000E-3
Scans to average: 10
Nonlinearity correction enabled: false
Boxcar width: 0
Storing dark spectrum: false
XAxis mode: Wavelengths
Number of Pixels in Spectrum: 2136
>>>>>Begin Spectral Data<<<<<
158.236	3.8
158.705	-6.5
159.174	-3.2
159.643	-6.4
160.112	3.5
160.582	-4.9
161.051	2.1
161.52	1.5
161.988	0.7
162.457	7.6
162.926	-4.7
163.395	3
163.864	0
164.332	-0.3
164.801	-8
165.269	-2.1
165.738	-4.7
166.206	0
166.675	5.6
167.143	-7.8
167.612	-3.9
168.08	3.6
168.548	4.8
169.016	0.2
169.484	0
169.952	1.6
170.42	-0.5
170.888	0.8
171.356	2.6
171.824	1.5
172.292	-6.7
172.759	3.1
173.227	4.6
173.695	1.6
174.162	8.1
174.63	1.6
175.097	-5.4
175.565	-3.5
176.032	3.9
176.499	0.9
176.967	-1.7
177.434	-8
177.901	-3.5
178.368	4.5
178.835	0.7
179.302	2.4
179.769	3
180.236	0.6
180.703	-4.6
181.17	10.1
181.637	-5.4
182.103	1.3
182.57	-6.8
183.036	-1.1
183.503	2.6
183.97	8
184.436	-3.4
184.902	5.1
185.369	7.6
185.835	-0.7
186.301	0.2
186.767	-5.5
187.234	-3.1
187.7	-2.5
188.166	3.8
188.632	-7.2
189.098	1.4
189.563	-1.1
190.029	-2.5
190.495	1.5
190.961	6.8
191.426	-1.3
191.892	1.7
192.358	1.4
192.823	1.8
193.289	8.1
193.754	3.5
194.219	-0.2
194.685	6.3
195.15	-1.9
195.615	-2.1
196.08	2.1
196.545	2.7
197.01	0.4
197.475	-2.5
197.94	-2.5
198.405	4.9
198.87	0.8
199.335	0.2
199.8	-8.8
200.264	48.1
200.729	46.4
201.193	45.9
201.658	45.6
202.122	46
202.587	53.1
203.051	41.6
203.516	53.1
203.98	51.6
204.444	56.1
204.908	63.7
205.372	67.5
205.836	65.9
206.3	69.4
206.764	83.6
207.228	100
207.692	112.3
208.156	134
208.62	164.1
209.083	194.1
209.547	218.1
210.011	278
210.474	317.6
210.938	376.7
211.401	405.1
211.864	484.7
212.328	543.1
212.791	620.3
213.254	708.3
213.717	799.6
214.181	888.4
214.644	1076.7
215.107	1212.6
215.57	1329.2
216.033	1547.1
216.495	1802.1
216.958	2077.2
217.421	2225.5
217.884	2518.7
218.346	2817.2
218.809	2996.7
219.272	3171.7
219.734	3198.4
220.196	3212.3
220.659	3294.9
221.121	3395.5
221.584	3582.2
222.046	3772.3
222.508	3804.4
222.97	3772.2
223.432	3820.2
223.894	4173.5
224.356	4652.3
224.818	4777.3
225.28	4771.4
225.742	4918.8
226.204	5668.2
226.665	6423.4
227.127	6875.2
227.589	6806.5
228.05	6458.8
228.512	6328.5
228.973	6461.8
229.435	6755.5
229.896	7058.8
230.357	7448.9
230.818	7745.4
231.28	7383.1
231.741	7106.8
232.202	7162.3
232.663	7578.4
233.124	8384.1
233.585	9142.5
234.046	9221.4
234.507	8403.2
234.967	7443.8
235.428	7393.5
235.889	8212.7
236.349	9115.2
236.81	9314.4
237.271	8165.8
237.731	6705.7
238.191	6093
238.652	6664.2
239.112	7846.9
239.572	8666.5
240.033	8111.5
240.493	6535.8
240.953	5976.9
241.413	6969
241.873	8680.9
242.333	9641.7
242.793	8539.4
243.253	6752
243.712	6232.9
244.172	7579.3
244.632	9474.3
245.092	10405.4
245.551	9155.9
246.011	6844.1
246.47	5472.7
246.93	6486.1
247.389	9154.2
247.848	10976.8
248.308	10460.5
248.767	8447.3
249.226	6544.7
249.685	6663.7
250.144	9394
250.603	13115.5
251.062	14359.1
251.521	12278.1
251.98	8920.3
252.439	6552.5
252.897	6398
253.356	8709.7
253.815	10882.1
254.273	11062.9
254.732	9467.5
255.19	6727.7
255.649	5034.1
256.107	5089.6
256.566	6021.6
257.024	6790.5
257.482	6424.3
257.94	5103.3
258.398	4070.6
258.856	3672.9
259.315	4274.9
259.772	5316.1
260.23	5871.8
260.688	5608.9
261.146	4572.1
261.604	3735.5
262.062	3928.2
262.519	4880.8
262.977	5922.5
263.434	6140.9
263.892	5902.3
264.349	5821.1
264.807	6011
265.264	6327.3
265.721	6831.8
266.179	7136
266.636	6906.5
267.093	6636.3
267.55	6978.6
268.007	7981.5
268.464	8805.6
268.921	9059.7
269.378	8743.6
269.835	8453.7
270.291	8254.5
270.748	8255.5
271.205	8489.9
271.661	8784.4
272.118	8985.8
272.574	9171.9
273.031	9291.8
273.487	8836
273.944	8262.4
274.4	8141.3
274.856	8545.8
275.312	8750.7
275.768	9027.7
276.225	9012
276.681	8655.8
277.137	8084.7
277.593	7842.8
278.048	8151.7
278.504	8441.1
278.96	8457.7
279.416	7906.9
279.871	7207.4
280.327	6740.1
280.783	6701.3
281.238	6885.1
281.694	6855.7
282.149	6827.9
282.604	6724
283.06	6546.7
283.515	6223.4
283.97	6012.2
284.425	5899.8
284.88	5781.9
285.335	5646.7
285.79	5200.8
286.245	4756.4
286.7	4648.8
287.155	4781.8
287.61	4905.7
288.064	5192.5
288.519	5629.7
288.974	5809.7
289.428	5728.4
289.883	5677.3
290.337	5911
290.792	6451.6
291.246	7351.9
291.7	7883.7
292.155	8222.1
292.609	8190.4
293.063	7939.2
293.517	8006.9
293.971	8496
294.425	9221.6
294.879	9851
295.333	10328
295.787	10342.8
296.241	10134.5
296.694	10399.4
297.148	11070.6
297.602	11751.1
298.055	12327.8
298.509	12555.3
298.962	12031.1
299.416	12073.1
299.869	12017.3
300.322	11927.1
300.775	11994
301.229	12065.3
301.682	12317.3
302.135	12322.5
302.588	11946.2
303.041	11523.4
303.494	10960.1
303.947	10366.4
304.4	10263.1
304.852	10140.4
305.305	10039.7
305.758	9627.8
306.21	9005.1
306.663	8519.4
307.115	8396.3
307.568	8647.6
308.02	8838.8
308.473	8803.8
308.925	8382.1
309.377	8029.3
309.829	7815.4
310.282	7787.5
310.734	7611.5
311.186	7264
311.638	6965.8
312.09	6805.8
312.542	6620.3
312.993	6230.9
313.445	6096.5
313.897	5950.2
314.349	5826.5
314.8	5701.8
315.252	5541.2
315.703	5430.4
316.155	5251
316.606	5263.6
317.058	5077.5
317.509	5186.2
317.96	5140.2
318.411	4902.1
318.863	4895.1
319.314	4841.6
319.765	4742
320.216	4564.7
320.667	4312.4
321.117	4193.1
321.568	4136.3
322.019	4052.5
322.47	3961.5
322.921	3848.3
323.371	3762.7
323.822	3524.4
324.272	3341.5
324.723	3157.8
325.173	2968.1
325.623	2808.8
326.074	2650.4
326.524	2565.9
326.974	3023.5
327.424	4415.5
327.874	5663.9
328.325	4482.2
328.775	3166.6
329.224	2984
329.674	2845.6
330.124	2712.4
330.574	2612.3
331.024	2458.7
331.473	2351.4
331.923	2184.8
332.373	1990.4
332.822	1852.9
333.272	1724.1
333.721	1650.8
334.17	1496.5
334.62	1431.4
335.069	1316.5
335.518	1249.1
335.967	1223.3
336.416	1159.4
336.865	1074.3
337.314	1002.2
337.763	910.5
338.212	825.2
338.661	773.6
339.11	700.2
339.558	658.5
340.007	658.8
340.456	655.3
340.904	653.7
341.353	586.7
341.801	555.3
342.25	550.4
342.698	500.6
343.146	444
343.595	388.8
344.043	362.6
344.491	349.2
344.939	342
345.387	330.2
345.835	318.5
346.283	298.6
346.731	277.8
347.179	268.6
347.626	247.7
348.074	226.9
348.522	222
348.969	210.5
349.417	188.3
349.865	185.8
350.312	169.1
350.759	158.4
351.207	137.5
351.654	119.2
352.101	114.5
352.548	102.4
352.996	104.9
353.443	101.5
353.89	94.6
354.337	81.6
354.784	79.9
355.231	72.5
355.677	71
356.124	81.9
356.571	66.1
357.018	61
357.464	66.4
357.911	60.2
358.357	57
358.804	58.7
359.25	55.1
359.696	46.8
360.143	41.7
360.589	41.1
361.035	38.3
361.481	38.4
361.927	37.1
362.373	35.5
362.819	44.1
363.265	25.4
363.711	29.7
364.157	19.4
364.603	30.1
365.048	19.6
365.494	25.4
365.94	12.3
366.385	19.6
366.831	17
367.276	17.2
367.722	3.6
368.167	14.9
368.612	16.1
369.057	13.1
369.503	7.4
369.948	3.9
370.393	15.4
370.838	12.6
371.283	-0.2
371.728	13.2
372.173	5.3
372.617	11.1
373.062	2.7
373.507	0.9
373.951	14.7
374.396	6.1
374.841	13.2
375.285	8.7
375.729	3.9
376.174	5
376.618	7.7
377.062	1.7
377.507	1
377.951	10.7
378.395	-1.4
378.839	7.4
379.283	-4.7
379.727	12.4
380.171	11.4
380.615	6.6
381.059	8.5
381.502	5.6
381.946	3.3
382.39	8.9
382.833	6.4
383.277	6.2
383.72	12.5
384.164	16.1
384.607	15.1
385.05	1
385.494	19.2
385.937	5.8
386.38	4.7
386.823	0
387.266	7
387.709	3
388.152	15.8
388.595	6.8
389.038	-1.2
389.481	-1.6
389.923	2.5
390.366	-0.1
390.809	6.6
391.251	11.3
391.694	6.6
392.136	7.5
392.579	4.3
393.021	1.9
393.463	14.1
393.906	13.2
394.348	5.6
394.79	9.3
395.232	7.6
395.674	13.6
396.116	4.4
396.558	-0.2
397	4.3
397.442	3.7
397.884	7.6
398.325	4.6
398.767	14
399.209	5.1
399.65	6.9
400.092	5.1
400.533	6.3
400.974	13.2
401.416	3.4
401.857	6.3
402.298	7.4
402.74	6.9
403.181	9.7
403.622	2.1
404.063	8.4
404.504	4.9
404.945	9.3
405.386	6
405.826	17.8
406.267	0
406.708	6.5
407.149	2.1
407.589	8.1
408.03	12
408.47	11.1
408.911	8
409.351	0.4
409.791	7.7
410.232	3.2
410.672	4.7
411.112	3.9
411.552	1.1
411.992	15.4
412.432	4.6
412.872	6
413.312	9
413.752	7.3
414.192	1
414.632	10.4
415.071	11.7
415.511	-0.2
415.951	5
416.39	8.7
416.83	1.3
417.269	5.1
417.708	-2.2
418.148	4.6
418.587	7.7
419.026	6.2
419.465	2.7
419.904	9.7
420.344	9.1
420.783	3
421.221	7.7
421.66	7
422.099	5.2
422.538	11.7
422.977	-0.4
423.415	-2
423.854	8.8
424.293	10.2
424.731	5.6
425.17	11.5
425.608	-0.3
426.046	17
426.485	9.8
426.923	9
427.361	4
427.799	3.7
428.237	7.5
428.675	17.9
429.113	-0.9
429.551	0.7
429.989	10.2
430.427	5.7
430.865	15
431.303	2.6
431.74	5.1
432.178	12.6
432.615	-0.4
433.053	11.2
433.49	5.1
433.928	9.6
434.365	-1.5
434.802	-2.5
435.24	-1.3
435.677	9.7
436.114	9.9
436.551	2.5
436.988	-0.8
437.425	1.7
437.862	-5.4
438.299	10.6
438.736	2.5
439.172	-4.4
439.609	1.3
440.046	0.5
440.482	9
440.919	0.8
441.355	0.1
441.792	0.7
442.228	1.3
442.665	7.4
443.101	10.7
443.537	10.5
443.973	8.5
444.409	4.6
444.845	0.1
445.281	3.3
445.717	6.4
446.153	11.9
446.589	10.3
447.025	3
447.461	8.5
447.896	-0.3
448.332	6.5
448.768	1.7
449.203	4.6
449.639	13.9
450.074	8.6
450.509	8.4
450.945	7.3
451.38	9.6
451.815	10.6
452.25	4.6
452.685	1.8
453.12	7.8
453.555	-4.3
453.99	4
454.425	0.2
454.86	9.9
455.295	6.7
455.73	5.1
456.164	23.2
456.599	16.4
457.033	4.2
457.468	4.7
457.902	3.4
458.337	12.7
458.771	4
459.205	-2.5
459.64	7.5
460.074	5.2
460.508	6.5
460.942	0
461.376	-16.3
461.81	6.8
462.244	9.4
462.678	14.5
463.112	0.4
463.545	5.1
463.979	10.4
464.413	3.3
464.846	-1.8
465.28	11.6
465.713	15
466.147	8.7
466.58	-1.2
467.014	8.9
467.447	12.1
467.88	18.8
468.313	2.7
468.746	20.4
469.179	5.5
469.612	7.9
470.045	3.4
470.478	-4.1
470.911	5.8
471.344	0
471.777	-0.8
472.209	6.5
472.642	2.6
473.074	13.9
473.507	11.7
473.939	13.1
474.372	12.4
474.804	5.9
475.236	7.3
475.669	-1
476.101	16.6
476.533	8.3
476.965	12.8
477.397	-6.7
477.829	20
478.261	9.1
478.693	4.6
479.125	11.1
479.557	8.3
479.988	16.1
480.42	11
480.852	12.4
481.283	11.9
481.715	10.3
482.146	7.8
482.577	12.6
483.009	19.5
483.44	13.5
483.871	8.7
484.302	9.5
484.734	9.8
485.165	12.5
485.596	3.8
486.027	10.3
486.457	4.3
486.888	13.2
487.319	10.9
487.75	-2.2
488.181	8.8
488.611	4
489.042	7.9
489.472	7.6
489.903	2.7
490.333	10.4
490.764	4.7
491.194	12.3
491.624	6.2
492.054	9.8
492.484	11.9
492.915	14.3
493.345	9.1
493.775	12.9
494.204	3.1
494.634	7
495.064	10.7
495.494	4.9
495.924	-0.8
496.353	9.8
496.783	10.8
497.212	5.8
497.642	11.6
498.071	3.6
498.501	5.2
498.93	8.1
499.359	7
499.789	-2.1
500.218	10.5
500.647	9.2
501.076	3.1
501.505	4.6
501.934	5.1
502.363	3.5
502.792	3.4
503.221	9
503.649	8.2
504.078	4.7
504.507	-7.7
504.935	5.8
505.364	1.2
505.792	-1
506.221	0.5
506.649	7.1
507.077	6.1
507.506	7.4
507.934	12.7
508.362	-3
508.79	-3.7
509.218	15
509.646	-0.7
510.074	11.3
510.502	10
510.93	-1.3
511.357	18
511.785	11
512.213	2.5
512.64	-9.4
513.068	4.5
513.496	8
513.923	6.5
514.35	11
514.778	6.4
515.205	2
515.632	8.5
516.059	9.2
516.486	6.1
516.914	9.2
517.341	3.7
517.768	2.9
518.194	3.2
518.621	5.4
519.048	5.5
519.475	12.4
519.902	-3.4
520.328	0.4
520.755	5.5
521.181	-5.9
521.608	5.2
522.034	-0.2
522.461	0.5
522.887	-1.4
523.313	9.9
523.739	0
524.165	12.1
524.592	1.8
525.018	15.7
525.444	6.9
525.869	0.5
526.295	6.1
526.721	2.1
527.147	11.2
527.573	12
527.998	0.1
528.424	6.9
528.849	10.2
529.275	10.6
529.7	3.3
530.126	5.1
530.551	-2.3
530.976	2.1
531.402	-10.1
531.827	6.8
532.252	6.9
532.677	6
533.102	-6.6
533.527	9.4
533.952	9.6
534.377	3.4
534.801	7.7
535.226	0
535.651	4.3
536.076	-0.2
536.5	3.6
536.925	-1
537.349	2.7
537.773	5.1
538.198	10.3
538.622	9.9
539.046	2.4
539.471	11
539.895	0
540.319	11.7
540.743	6.1
541.167	2.6
541.591	5.5
542.015	8.9
542.438	5.9
542.862	1.5
543.286	5.7
543.71	9.2
544.133	2
544.557	12.8
544.98	-3.1
545.404	6.1
545.827	0.1
546.25	8.4
546.674	14.6
547.097	4.7
547.52	4.8
547.943	2.7
548.366	11
548.789	5.7
549.212	10.8
549.635	6
550.058	4.1
550.481	8.7
550.903	8.5
551.326	8
551.749	7.2
552.171	7.7
552.594	18.8
553.016	5
553.438	12.7
553.861	-0.7
554.283	3.4
554.705	2.9
555.128	0.4
555.55	7.8
555.972	7.4
556.394	9.1
556.816	8.4
557.238	6.3
557.659	3.4
558.081	8.9
558.503	14.3
558.925	19.6
559.346	-0.2
559.768	4.3
560.189	5.1
560.611	7.8
561.032	2.6
561.454	-1.8
561.875	6
562.296	5.9
562.718	4.2
563.139	15.8
563.56	10.1
563.981	15.3
564.402	1.6
564.823	8.9
565.244	5.2
565.664	11.4
566.085	7.4
566.506	2.5
566.927	-5.4
567.347	4.7
567.768	11.5
568.188	16.3
568.609	-0.5
569.029	8.9
569.449	0.1
569.87	0.3
570.29	-0.7
570.71	1.2
571.13	-2
571.55	11
571.97	0.8
572.39	4.3
572.81	-5.4
573.23	1.3
573.65	9.7
574.069	-1.8
574.489	0.4
574.909	-2.6
575.328	-2.7
575.748	5.4
576.167	2.9
576.587	9.9
577.006	-2.2
577.425	1.3
577.844	6.8
578.264	0.9
578.683	5
579.102	-0.8
579.521	3.1
579.94	4.9
580.359	4.2
580.778	-6.7
581.196	-3.7
581.615	-11.5
582.034	-3.5
582.452	-2.8
582.871	5.6
583.29	1.3
583.708	5.8
584.126	6.8
584.545	4.7
584.963	15.1
585.381	10.7
585.8	-3.8
586.218	6.4
586.636	-0.2
587.054	-1.9
587.472	8.4
587.89	5.6
588.308	4.3
588.725	0.6
589.143	-2.9
589.561	-0.4
589.979	3.6
590.396	-12.2
590.814	-3.9
591.231	-1.4
591.649	1.3
592.066	-0.1
592.483	1.9
592.901	-1
593.318	0.8
593.735	-1.2
594.152	2.6
594.569	5.1
594.986	4.2
595.403	0.8
595.82	3.6
596.237	2.7
596.654	5.8
597.07	3.5
597.487	1.6
597.904	-5.4
598.32	6.6
598.737	0.5
599.153	-0.9
599.57	-5.5
599.986	0.8
600.402	1.4
600.818	0.4
601.235	-3
601.651	3.5
602.067	8.1
602.483	10.3
602.899	1
603.315	-7.6
603.73	2.5
604.146	1.8
604.562	-1.4
604.978	0.8
605.393	-7.3
605.809	1.3
606.224	2.5
606.64	-3.5
607.055	3.8
607.471	7.7
607.886	0.5
608.301	-4.9
608.716	6.1
609.131	2.8
609.547	-3.2
609.962	3.6
610.377	1.6
610.791	0
611.206	-1.3
611.621	-3.8
612.036	-7.3
612.451	6.4
612.865	2.7
613.28	2.1
613.694	1.7
614.109	0.8
614.523	2.8
614.938	6.1
615.352	-4.6
615.766	6
616.18	12.8
616.595	12.4
617.009	6.8
617.423	14.4
617.837	5.3
618.251	8.1
618.664	15.1
619.078	19.5
619.492	8.5
619.906	24.5
620.319	11
620.733	17.5
621.146	10.8
621.56	12
621.973	15
622.387	15.1
622.8	19.7
623.213	15.8
623.627	18.9
624.04	17.4
624.453	19.9
624.866	24.1
625.279	30.2
625.692	28.6
626.105	26.5
626.518	39.1
626.93	21
627.343	32.2
627.756	40.7
628.168	37.1
628.581	31.3
628.993	31.3
629.406	47.6
629.818	40
630.231	58.2
630.643	61.9
631.055	48.5
631.467	48.8
631.879	72
632.291	59.2
632.703	69.3
633.115	76.8
633.527	85
633.939	90.1
634.351	97.9
634.763	97.7
635.174	106.6
635.586	121.3
635.997	120.3
636.409	124
636.82	126.2
637.232	120.6
637.643	124.9
638.054	129
638.466	133.7
638.877	124.5
639.288	134.6
639.699	136
640.11	130.5
640.521	139
640.932	127.7
641.343	118.2
641.753	131.4
642.164	127.5
642.575	128.9
642.986	136.1
643.396	140.1
643.807	145.4
644.217	151.1
644.627	139
645.038	128.6
645.448	159.4
645.858	148.3
646.269	149.8
646.679	149.8
647.089	139.4
647.499	142.9
647.909	144
648.319	137.3
648.728	151
649.138	141.3
649.548	122.6
649.958	136.6
650.367	131.5
650.777	140.1
651.186	134.1
651.596	133.5
652.005	121.8
652.415	125.9
652.824	113.7
653.233	108.1
653.642	113.5
654.052	101.6
654.461	103.3
654.87	101.4
655.279	101.2
655.688	91.1
656.096	92.6
656.505	96.9
656.914	99.7
657.323	96.5
657.731	91.3
658.14	100.7
658.548	89.2
658.957	86.1
659.365	89.2
659.774	91.1
660.182	84.2
660.59	93.2
660.998	97.7
661.407	92.5
661.815	91.1
662.223	80.7
662.631	86.7
663.039	81.8
663.446	79.5
663.854	86.2
664.262	83.8
664.67	74.8
665.077	71.1
665.485	66.8
665.892	70.5
666.3	63.2
666.707	49.6
667.115	59.3
667.522	49.9
667.929	46.1
668.337	38.6
668.744	43.8
669.151	35.4
669.558	45.7
669.965	28.3
670.372	32.9
670.779	22.4
671.185	24.6
671.592	33.7
671.999	16.2
672.405	17.8
672.812	14.9
673.219	16.6
673.625	27
674.032	24.4
674.438	11.9
674.844	14.8
675.25	14.2
675.657	11.9
676.063	17.2
676.469	7.9
676.875	6.1
677.281	11.8
677.687	14.4
678.093	13.6
678.499	3
678.904	6.3
679.31	10.3
679.716	8.5
680.121	2.1
680.527	2.9
680.932	10.5
681.338	6
681.743	7.8
682.148	-3.6
682.554	8.9
682.959	3.6
683.364	2
683.769	14.6
684.174	5.2
684.579	13.4
684.984	8.9
685.389	18.6
685.794	-1.1
686.199	5
686.603	6.8
687.008	0.9
687.413	-0.1
687.817	1.7
688.222	9.5
688.626	-2.8
689.03	0.9
689.435	1.3
689.839	16.5
690.243	7.7
690.647	1
691.051	1.4
691.456	0.5
691.859	6.1
692.263	4.7
692.667	5.2
693.071	6.6
693.475	5.9
693.879	-0.4
694.282	9.3
694.686	2.9
695.089	11.8
695.493	-0.2
695.896	2.6
696.3	-1.8
696.703	2.5
697.106	4.7
697.509	6.4
697.913	-2.5
698.316	-5.8
698.719	-0.9
699.122	-2.1
699.525	-12.2
699.928	2.7
700.33	6.9
700.733	-0.4
701.136	-11.9
701.539	6.8
701.941	-7.4
702.344	9
702.746	4.1
703.149	0.4
703.551	-8.8
703.953	-0.9
704.356	5.3
704.758	-2.6
705.16	2.6
705.562	6.6
705.964	1.3
706.366	7.7
706.768	-3.7
707.17	0.6
707.572	-5
707.973	-6.8
708.375	-1.9
708.777	-4.9
709.178	0.1
709.58	-2.9
709.981	-12.9
710.383	2.9
710.784	2.5
711.186	-7.4
711.587	-3.6
711.988	1.5
712.389	-2.4
712.79	2.7
713.191	8.5
713.592	0.8
713.993	2.6
714.394	5.1
714.795	-1.8
715.196	2.7
715.596	-10.4
715.997	1.5
716.398	-3.6
716.798	4.4
717.199	-3.1
717.599	7.5
718	-5.6
718.4	-0.2
718.8	-6.3
719.2	-3.4
719.6	3.4
720.001	3
720.401	-1.8
720.801	6.1
721.201	5.7
721.6	-3.3
722	0.8
722.4	-10.6
722.8	3.7
723.199	-3.7
723.599	-3.2
723.998	2.5
724.398	6.5
724.797	2.5
725.197	-2.1
725.596	-10.5
725.995	-3.5
726.394	3.7
726.794	-1.5
727.193	-0.1
727.592	-1.6
727.991	-5.2
728.39	1.6
728.789	2.7
729.187	-1.3
729.586	0.5
729.985	0.4
730.383	0.4
730.782	8.5
731.181	-0.1
731.579	8.1
731.977	-2.1
732.376	-3
732.774	1.7
733.172	4.1
733.571	-0.7
733.969	0.7
734.367	-1.8
734.765	11.2
735.163	-0.8
735.561	2.5
735.959	5.7
736.356	6
736.754	7.3
737.152	3.6
737.55	4.6
737.947	2.3
738.345	9.4
738.742	12.8
739.14	0.9
739.537	-1.7
739.934	13.6
740.331	7.6
740.729	22.8
741.126	11.8
741.523	20.9
741.92	14.1
742.317	7.9
742.714	9.3
743.111	1.1
743.507	9.5
743.904	11.5
744.301	12.6
744.697	4.1
745.094	14.8
745.491	11.8
745.887	16.1
746.283	13.9
746.68	9.3
747.076	12.8
747.472	26
747.869	20.9
748.265	22.3
748.661	19.1
749.057	22.3
749.453	22.5
749.849	28.6
750.244	17.7
750.64	30.5
751.036	32.2
751.432	27.6
751.827	29.1
752.223	20.4
752.618	29.1
753.014	23.5
753.409	24.9
753.805	26.3
754.2	17.5
754.595	29.2
754.99	36.7
755.385	23
755.78	29.3
756.175	24.2
756.57	15.3
756.965	30.4
757.36	17.9
757.755	31.3
758.15	28.9
758.544	41.9
758.939	51.5
759.334	55.3
759.728	57.7
760.122	62.6
760.517	61.8
760.911	63.4
761.306	67.3
761.7	60.2
762.094	40.7
762.488	60.1
762.882	45.7
763.276	49
763.67	44.7
764.064	47.7
764.458	53.5
764.852	50.8
765.245	47.4
765.639	55.4
766.033	59.7
766.426	59.6
766.82	67.9
767.213	62.1
767.606	59.2
768	59.7
768.393	60
768.786	55
769.179	66.8
769.572	59.9
769.966	56.4
770.358	50.4
770.751	45.2
771.144	47.3
771.537	38.4
771.93	43.6
772.323	38.5
772.715	36.7
773.108	34.7
773.5	26.8
773.893	34.2
774.285	32.8
774.678	35.4
775.07	36.6
775.462	39.2
775.854	18.3
776.247	14.6
776.639	32.5
777.031	19.6
777.423	20.5
777.815	20.8
778.207	26.7
778.598	17.6
778.99	21.7
779.382	27.6
779.773	33.8
780.165	37.6
780.557	57.8
780.948	59
781.339	63.6
781.731	60.7
782.122	70.7
782.513	66.6
782.905	58
783.296	69.8
783.687	63.5
784.078	56.9
784.469	59.1
784.86	50.4
785.251	60.7
785.641	60.5
786.032	54.9
786.423	59.7
786.813	65.6
787.204	48.9
787.594	65.2
787.985	63.2
788.375	54.2
788.766	53.5
789.156	46.8
789.546	36.1
789.936	39.2
790.326	42.2
790.717	35.4
791.107	39.7
791.497	35.9
791.886	26.6
792.276	34.7
792.666	22.3
793.056	30.5
793.445	19.6
793.835	19.2
794.225	19.2
794.614	23.2
795.004	13.8
795.393	21.8
795.782	31.9
796.172	14.7
796.561	38.9
796.95	23
797.339	21.6
797.728	29.8
798.117	20
798.506	24.3
798.895	19.5
799.284	21.3
799.673	21.2
800.061	13.6
800.45	17.7
800.839	16.5
801.227	6.8
801.616	10.4
802.004	5
802.392	10.6
802.781	8.5
803.169	10.6
803.557	5.5
803.945	4.3
804.333	4.3
804.721	5.3
805.109	12
805.497	6.1
805.885	8.4
806.273	6.3
806.661	3.9
807.048	7.3
807.436	0.4
807.824	5.1
808.211	-3.6
808.599	-8
808.986	10.4
809.373	2.5
809.761	6.3
810.148	3.2
810.535	16.7
810.922	-3.6
811.309	1.6
811.696	6.1
812.083	7.1
812.47	9.4
812.857	5.1
813.244	1.7
813.631	-1.8
814.017	-3.4
814.404	5.9
814.791	3
815.177	-5.5
815.564	0.7
815.95	13.8
816.336	11.8
816.723	0.5
817.109	6.7
817.495	0.8
817.881	9.3
818.267	2.5
818.653	8.2
819.039	-1.4
819.425	5.3
819.811	1.1
820.197	2.4
820.582	-1.3
820.968	4.8
821.354	7.7
821.739	-11.7
822.125	8.5
822.51	-3.2
822.895	8.2
823.281	0.9
823.666	2.8
824.051	4.9
824.436	3
824.822	5.9
825.207	1
825.592	0
825.976	4.3
826.361	1.2
826.746	-0.9
827.131	-2.5
827.516	1.3
827.9	5.5
828.285	-1.5
828.669	1.9
829.054	5.9
829.438	7.1
829.823	-1
830.207	0.8
830.591	13.1
830.975	0.6
831.36	-1.2
831.744	0
832.128	-5.6
832.512	5.6
832.895	8.2
833.279	-2.1
833.663	2.9
834.047	-5.5
834.431	-2.1
834.814	8.1
835.198	-2.9
835.581	-2.6
835.965	3
836.348	6.5
836.731	-6
837.115	6.8
837.498	-0.8
837.881	10.9
838.264	0.9
838.647	-6.3
839.03	-2.6
839.413	-2.3
839.796	0.8
840.179	-9.8
840.562	2
840.944	-3
841.327	-2.4
841.71	2
842.092	6.8
842.475	-4.1
842.857	1.7
843.24	4.9
843.622	-1.6
844.004	8.5
844.386	3.3
844.769	-7.5
845.151	1.9
845.533	4.6
845.915	1.2
846.297	4.1
846.678	4.4
847.06	-0.5
847.442	6.3
847.824	1.5
848.205	0.5
848.587	-3.1
848.968	7.3
849.35	-8.6
849.731	-0.6
850.113	-0.6
850.494	3.8
850.875	-9.1
851.256	5.5
851.638	7.1
852.019	2.2
852.4	-5.1
852.781	0.5
853.161	2.2
853.542	-3.7
853.923	-4.4
854.304	-3.9
854.685	9.6
855.065	6.1
855.446	-1.4
855.826	3.1
856.207	2.3
856.587	2.7
856.967	-3.3
857.348	5.3
857.728	6.7
858.108	-1.6
858.488	-0.7
858.868	-2.7
859.248	8
859.628	2
860.008	-0.8
860.388	3
860.768	0.4
861.147	4.3
861.527	6.8
861.907	12.1
862.286	7
862.666	12.8
863.045	11.3
863.424	10.5
863.804	-8.5
864.183	-1.3
864.562	3.5
864.941	9.8
865.32	2.6
865.699	0.9
866.078	-8.9
866.457	8.5
866.836	-5
867.215	2.5
867.594	2.3
867.972	-4.7
868.351	2.4
868.729	0.8
869.108	-0.6
869.486	3.3
869.865	-0.1
870.243	0.7
870.621	-4.5
871	8.5
871.378	9.3
871.756	6
872.134	9.2
872.512	9.4
872.89	4.6
873.268	11.1
873.646	3.1
874.023	-6.2
874.401	-2.8
874.779	0.4
875.156	0.1
875.534	4
875.911	1
876.289	-3
876.666	-13.6
877.043	1.1
877.421	-3.8
877.798	-13.7
878.175	-1.3
878.552	-11.7
878.929	-2.3
879.306	0.1
879.683	1
880.06	-6.3
880.437	6
880.813	7.8
881.19	7.6
881.567	9.6
881.943	-7.4
882.32	-3.7
882.696	0.7
883.073	12.8
883.449	-4.4
883.825	-0.7
884.202	0.8
884.578	3.8
884.954	8.5
885.33	5.5
885.706	3
886.082	-2.6
886.458	6.9
886.834	11.5
887.209	2.9
887.585	2.5
887.961	6.4
888.336	11.6
888.712	6.3
889.087	-11.1
889.463	4.2
889.838	8.1
890.213	-4.8
890.589	5.6
890.964	0
891.339	1.1
891.714	6.5
892.089	-2.7
892.464	20.4
892.839	3.9
893.214	2.7
893.589	-3.2
893.963	1.6
894.338	0.4
894.713	-1.5
895.087	5.9
895.462	4.7
895.836	-4.3
896.211	0.5
896.585	0.8
896.959	0.6
897.334	3.9
897.708	6.4
898.082	5.5
898.456	-5.9
898.83	9.3
899.204	10.2
899.578	-2.9
899.952	4
900.325	1.6
900.699	-7.2
901.073	0.2
901.446	2.2
901.82	1.2
902.193	0.4
902.567	-1.1
902.94	6.1
903.313	2.2
903.687	-4.7
904.06	-6.6
904.433	4.2
904.806	17.5
905.179	13.2
905.552	14.3
905.925	-2.3
906.298	11.4
906.671	10.6
907.043	3.2
907.416	8.1
907.789	8
908.161	1.7
908.534	9.8
908.906	10.3
909.279	12
909.651	9.1
910.023	1.4
910.396	7.6
910.768	10.6
911.14	9
911.512	5.7
911.884	9.8
912.256	3.6
912.628	6.8
912.999	10
913.371	1.5
913.743	16.2
914.115	5.2
914.486	7.6
914.858	4.4
915.229	9.4
915.601	-1.7
915.972	4
916.343	7
916.715	4.1
917.086	1.6
917.457	14.5
917.828	0.9
918.199	15.4
918.57	11.2
918.941	5.1
919.312	-2.5
919.682	2
920.053	5
920.424	4.7
920.794	6.4
921.165	-4.3
921.536	4
921.906	15.9
922.276	3.8
922.647	-9.7
923.017	1
923.387	-5.5
923.757	3.2
924.127	9
924.497	6.8
924.867	3.8
925.237	5.8
925.607	9.9
925.977	3.8
926.347	3.2
926.716	6
927.086	0.7
927.456	-2
927.825	-3.4
928.195	3.9
928.564	8.9
928.933	7.4
929.303	-1.6
929.672	5.5
930.041	10.8
930.41	12.3
930.779	3.3
931.148	20.1
931.517	8.5
931.886	8.3
932.255	2.2
932.624	3.9
932.993	4.9
933.361	6.6
933.73	8.7
934.098	4.2
934.467	7.7
934.835	11.6
935.204	5.2
935.572	10
935.94	11.8
936.308	9.9
936.677	9
937.045	7.2
937.413	14.4
937.781	9.5
938.149	11
938.516	13.5
938.884	17.9
939.252	14.8
939.62	8.7
939.987	14.2
940.355	4.2
940.722	5.5
941.09	5.1
941.457	15.9
941.825	5.2
942.192	5.7
942.559	14.2
942.926	-0.8
943.293	22.5
943.66	8.2
944.027	7.5
944.394	10.2
944.761	2.3
945.128	12
945.495	10
945.861	9.8
946.228	14.6
946.595	6.9
946.961	14
947.328	13.1
947.694	8.4
948.06	13
948.427	14.1
948.793	10.6
949.159	2.1
949.525	1.3
949.891	6.7
950.257	4.6
950.623	5.8
950.989	2.7
951.355	3.3
951.721	12
952.087	6.2
952.452	8.8
952.818	1.2
953.183	6
953.549	2.9
953.914	12
954.28	4
954.645	4.8
955.01	6.6
955.375	4.2
955.741	2.5
956.106	6.7
956.471	-2.1
956.836	-4.3
957.201	-0.3
957.566	2.9
957.93	9.6
958.295	6.5
958.66	8.1
959.024	14.3
959.389	1.2
959.753	13.1
960.118	-2.6
960.482	-1.8
960.847	-2.7
961.211	-8
961.575	6.4
961.939	3.4
962.303	6.7
962.667	5.9
963.031	3.7
963.395	11.2
963.759	6.4
964.123	-9.2
964.487	5
964.851	5.3
965.214	1.8
965.578	5.5
965.941	2.2
966.305	4.1
966.668	2
967.032	0.6
967.395	-9.3
967.758	3.6
968.121	6
968.484	18.2
968.847	1.2
969.21	9.3
969.573	3.3
969.936	-1.8
970.299	3.9
970.662	10.1
971.025	-1.8
971.387	-1.7
971.75	4.2
972.112	-0.5
972.475	9.4
972.837	7
973.2	3.4
973.562	2.6
973.924	1.9
974.286	-3.8
974.649	-2.6
975.011	2.8
975.373	-0.4
975.735	-1.4
976.097	-0.4
976.458	1.2
976.82	5.5
977.182	12.4
977.544	0
977.905	-0.9
978.267	1.7
978.628	1.3
978.99	0.4
979.351	-1.7
979.712	6.1
980.074	10.5
980.435	3.1
980.796	4
981.157	2.2
981.518	-0.5
981.879	3.9
982.24	-4.5
982.601	2.4
982.962	0
983.323	-1.1
983.683	3
984.044	2
984.404	7.3
984.765	7.7
985.125	7.5
985.486	9.7
985.846	-0.1
986.206	-0.6
986.567	4
986.927	-3
987.287	6.1
987.647	-7.6
988.007	-0.6
988.367	10.4
988.727	-3.8
989.087	3.8
989.446	3.7
989.806	8.1
990.166	0.2
990.525	9.9
990.885	0.1
991.244	-2.8
991.604	3.5
991.963	6.6
992.322	3.9
992.682	-6.3
993.041	3.3
993.4	-0.9
993.759	1.9
994.118	-2.2
994.477	-0.8
994.836	10.6
995.195	5.7
995.553	3.8
995.912	8.5
996.271	12.8
996.629	10.1
996.988	7.2
997.346	10.5
997.705	1.6
998.063	6.1
998.422	4.8
998.78	8.3
999.138	5.2
999.496	5.6
999.854	4.2
1000.212	2.2
1000.57	5.2
1000.928	6.5
1001.286	0
1001.644	4.1
1002.001	-1.7
1002.359	-2.9
1002.717	-0.9
1003.074	2.1
1003.432	1.7
1003.789	-4.9
1004.147	8.7
1004.504	-3.6
1004.861	8.4
1005.218	3.8
1005.576	1.7
1005.933	5.4
1006.29	-0.2
1006.647	3.1
1007.004	1.9
1007.36	6.7
1007.717	7.8
1008.074	8.7
1008.431	2.3
1008.787	-2.6
1009.144	6.5
1009.5	-8
1009.857	-2.1
1010.213	5.5
1010.569	3
1010.926	-1.1
1011.282	2.9
1011.638	6.3
1011.994	1.7
1012.35	3.3
1012.706	2.5
1013.062	8.9
1013.418	4.7
1013.774	-3.7
1014.13	-1.9
1014.485	5.1
1014.841	3.8
1015.197	3.2
1015.552	1.3
1015.907	-2
1016.263	2.1
1016.618	-7.8
1016.974	-0.4
1017.329	0
1017.684	-9.8
1018.039	4
1018.394	1
1018.749	-8.2
1019.104	-14.4
1019.459	0.4
1019.814	3.5
1020.168	-0.6
1020.523	-0.3
1020.878	8.6
1021.232	-11
1021.587	2
1021.941	-0.7
1022.296	0.4
1022.65	0.4
1023.004	13.3
1023.359	-1.3
1023.713	6
1024.067	-4.6
1024.421	-1
1024.775	0.6
1025.129	5.7
1025.483	8.4
1025.837	-0.8
1026.19	8.1
1026.544	-8.6
1026.898	4.6
1027.251	-4.3
1027.605	1.9
1027.958	-4.9
1028.312	-0.7
1028.665	0.1
1029.018	6
1029.372	-2.9
1029.725	2.7
1030.078	-0.7
1030.431	9.5
1030.784	1.6
1031.137	-1.9
1031.49	-0.5
1031.843	10.6
1032.195	3.1
1032.548	-5.3
1032.901	1.9
1033.253	1.1
1033.606	11.4
1033.958	5.6
1034.311	7.7
1034.663	-0.1
1035.016	0.5
1035.368	-4.4
1035.72	1.4
1036.072	4.4
1036.424	10.4
1036.776	3
1037.128	-5.1
1037.48	-5.8
